Sequence,Geo-X,Geo-Y,Geo-Z,Acc-X,Acc-Y,Acc-Z,Gyro-X,Gyro-Y,Gyro-z
2,-0.551,-1.030516,-0.253771,-0.972542,-0.02125,-0.048479,-0.354806,-0.261763,-0.027057
3,-0.555601,-1.030516,-0.277316,-0.974149,-0.030083,-0.036432,-0.291923,0.178865,-1.034226
4,-0.555601,-1.030516,-0.277316,-0.963709,-0.029281,-0.03081,-0.354806,-0.135848,-0.782397
5,-0.5487,-1.030516,-0.24069,-0.967724,-0.02125,-0.043659,-0.669518,-0.45056,-0.530716
6,-0.553301,-1.030516,-0.24069,-0.963709,-0.030886,-0.037235,-0.480721,-0.576475,-0.530716
7,-0.560203,-1.028122,-0.261619,-0.978968,-0.033297,-0.040448,-0.543603,-0.765273,-0.782397
8,-0.546399,-1.025729,-0.269468,-0.978164,-0.025266,-0.043659,-0.858316,-0.135848,-1.034226
9,-0.544098,-1.03291,-0.261619,-0.966118,-0.022855,-0.028401,-0.543603,-0.324646,-1.223024
10,-0.544098,-1.03291,-0.261619,-0.975755,-0.025266,-0.035628,-0.858316,-0.135848,-0.656482
11,-0.562503,-1.023335,-0.266851,-0.970133,-0.030083,-0.04125,-0.606635,-0.072965,-0.341769
12,-0.560203,-1.025729,-0.261619,-0.970133,-0.027674,-0.038037,-0.606635,-0.45056,-0.530716
13,-0.555601,-1.028122,-0.272084,-0.972542,-0.020446,-0.049281,-0.858316,-0.198731,-0.908311
14,-0.555601,-1.035304,-0.287781,-0.975755,-0.02687,-0.031613,-0.480721,-0.009933,-1.034226
15,-0.560203,-1.020941,-0.253771,-0.960495,-0.033297,-0.016353,-0.480721,-0.513443,-0.971194
16,-0.557902,-1.020941,-0.287781,-0.962904,-0.02125,-0.045266,-0.480721,0.241748,-0.278886
17,-0.557902,-1.020941,-0.287781,-0.977362,-0.015628,-0.03081,-0.73255,-0.576475,-1.223024
18,-0.553301,-1.025729,-0.256387,-0.96692,-0.032492,-0.036432,-0.606635,-0.576475,-0.216004
19,-0.567104,-1.01376,-0.261619,-0.976557,-0.034901,-0.036432,-0.606635,0.05295,-0.908311
20,-0.562503,-1.035304,-0.264235,-0.958087,-0.03169,-0.045266,-0.291923,-0.198731,-0.782397
21,-0.567104,-1.020941,-0.261619,-0.974149,-0.018839,-0.038037,-0.103125,-0.324646,-0.971194
22,-0.564804,-1.023335,-0.253771,-0.97174,-0.026068,-0.044463,-0.669518,-0.387677,-0.656482
23,-0.564804,-1.023335,-0.253771,-0.983786,-0.015628,-0.040448,-0.291923,-0.135848,-0.719514
24,-0.571706,-1.030516,-0.243306,-0.967724,-0.03169,-0.059721,-0.103125,-0.261763,-0.782397
25,-0.569405,-1.035304,-0.251155,-0.97174,-0.027674,-0.030006,-0.417838,-0.45056,-0.908311
26,-0.576307,-1.030516,-0.290397,-0.966118,-0.029281,-0.04125,-0.669518,-0.135848,-1.034226
27,-0.569405,-1.037698,-0.287781,-0.978968,-0.034099,-0.033219,-0.291923,-0.513443,-0.656482
28,-0.571706,-1.030516,-0.277316,-0.973346,-0.025266,-0.009126,-0.795433,-0.639358,-0.593599
29,-0.571706,-1.030516,-0.277316,-0.959693,-0.032492,-0.042857,-0.543603,-0.009933,-0.782397
30,-0.564804,-1.028122,-0.285165,-0.962904,-0.034901,-0.032417,-0.858316,-0.135848,-1.097109
31,-0.564804,-1.025729,-0.290397,-0.963709,-0.034099,-0.048479,-0.543603,-0.639358,-0.656482
32,-0.569405,-1.025729,-0.2747,-0.974953,-0.030886,-0.045266,-0.606635,-0.135848,-1.034226
33,-0.564804,-1.018547,-0.279932,-0.970133,-0.024461,-0.036432,-0.606635,-0.198731,-0.719514
34,-0.560203,-1.028122,-0.293013,-0.979771,-0.018839,-0.027597,-0.228891,-0.45056,-0.845429
35,-0.557902,-1.023335,-0.261619,-0.968526,-0.020446,-0.050888,-0.73255,-0.576475,-0.971194
36,-0.557902,-1.023335,-0.261619,-0.977362,-0.030083,-0.045266,-0.669518,-0.513443,-0.656482
37,-0.564804,-1.023335,-0.272084,-0.963709,-0.023659,-0.033219,-0.543603,-0.261763,-0.782397
38,-0.560203,-1.030516,-0.279932,-0.973346,-0.034099,-0.040448,-0.228891,-0.324646,-0.971194
39,-0.555601,-1.025729,-0.261619,-0.970937,-0.029281,-0.05651,-0.543603,-0.261763,-1.097109
40,-0.555601,-1.023335,-0.264235,-0.97174,-0.036508,-0.039644,-0.921348,-0.198731,-1.034226
41,-0.553301,-1.028122,-0.251155,-0.966118,-0.042934,-0.050888,-0.543603,-0.261763,-0.719514
42,-0.553301,-1.028122,-0.251155,-0.974149,-0.02125,-0.058919,-0.543603,-0.198731,-0.782397
43,-0.555601,-1.020941,-0.264235,-0.962102,-0.030083,-0.052494,-0.543603,-0.387677,-0.908311
44,-0.562503,-1.023335,-0.251155,-0.967724,-0.028477,-0.030006,-0.228891,-0.198731,-0.341769
45,-0.560203,-1.025729,-0.266851,-0.977362,-0.033297,-0.029204,-1.361975,-0.765273,-0.593599
46,-0.564804,-1.020941,-0.261619,-0.969331,-0.02125,-0.046068,-0.354806,-0.45056,-0.719514
47,-0.562503,-1.01376,-0.256387,-0.973346,-0.029281,-0.043659,-0.543603,-0.261763,-0.656482
48,-0.562503,-1.01376,-0.256387,-0.970937,-0.02687,-0.045266,-0.606635,-0.261763,-1.034226
49,-0.562503,-1.023335,-0.232841,-0.967724,-0.03169,-0.042053,-0.480721,-0.387677,-0.656482
50,-0.562503,-1.020941,-0.290397,-0.970133,-0.02687,-0.047675,-0.543603,-0.828156,-0.782397
51,-0.571706,-1.008972,-0.272084,-0.972542,-0.018839,-0.06695,-0.291923,-0.576475,-0.908311
52,-0.564804,-1.023335,-0.282549,-0.95648,-0.04213,-0.027597,-0.354806,-0.324646,-0.593599
53,-0.574006,-1.025729,-0.261619,-0.962904,-0.024461,-0.024386,-0.984231,-0.261763,-0.719514
54,-0.574006,-1.023335,-0.279932,-0.978164,-0.034901,-0.035628,-0.354806,-0.324646,-0.782397
55,-0.574006,-1.023335,-0.279932,-0.968526,-0.034901,-0.036432,-0.291923,-0.072965,-0.593599
56,-0.578608,-1.023335,-0.279932,-0.970133,-0.030886,-0.046872,-0.669518,-0.513443,-0.278886
57,-0.583209,-1.018547,-0.264235,-0.967724,-0.022052,-0.053297,-0.354806,-0.387677,-0.656482
58,-0.580908,-1.035304,-0.282549,-0.964511,-0.034099,-0.047675,-0.480721,0.115982,-0.782397
59,-0.576307,-1.025729,-0.259003,-0.978968,-0.032492,-0.039644,-0.73255,0.115982,-0.845429
60,-0.567104,-1.023335,-0.269468,-0.96692,-0.030083,-0.050085,-0.543603,-0.198731,-0.593599
61,-0.567104,-1.023335,-0.269468,-0.963709,-0.028477,-0.019566,-0.417838,-0.198731,-0.656482
62,-0.567104,-1.03291,-0.277316,-0.965315,-0.024461,-0.030006,-0.606635,0.304779,-0.782397
63,-0.576307,-1.03291,-0.251155,-0.967724,-0.035705,-0.066147,-0.669518,-0.072965,-0.845429
64,-0.583209,-1.028122,-0.277316,-0.959693,-0.02687,-0.045266,-0.354806,-0.387677,-0.593599
65,-0.571706,-1.030516,-0.269468,-0.96692,-0.025266,-0.053297,-0.858316,-0.198731,-0.278886
66,-0.578608,-1.030516,-0.285165,-0.953269,-0.034901,-0.021975,-0.543603,-0.261763,-0.719514
67,-0.564804,-1.020941,-0.266851,-0.974953,-0.013217,-0.031613,-0.543603,0.115982,-0.530716
68,-0.564804,-1.020941,-0.266851,-0.977362,-0.02125,-0.042053,-0.858316,-0.45056,-0.341769
69,-0.567104,-1.020941,-0.282549,-0.967724,-0.029281,-0.044463,-0.795433,-0.324646,-0.719514
70,-0.569405,-1.030516,-0.256387,-0.965315,-0.039721,-0.046068,-0.543603,-0.198731,-0.656482
71,-0.576307,-1.030516,-0.277316,-0.974953,-0.030083,-0.05651,-0.669518,-0.009933,-0.719514
72,-0.571706,-1.035304,-0.277316,-0.958087,-0.037312,-0.029204,-0.354806,-0.387677,-0.593599
73,-0.560203,-1.028122,-0.264235,-0.99021,-0.02687,-0.045266,-1.047263,-0.387677,-0.593599
74,-0.560203,-1.028122,-0.264235,-0.969331,-0.022855,-0.043659,-0.228891,-0.576475,-0.467684
75,-0.578608,-1.01376,-0.261619,-0.970133,-0.032492,-0.032417,-0.166008,-0.45056,-0.782397
76,-0.574006,-1.020941,-0.277316,-0.978968,-0.018839,-0.026795,-0.984231,-0.765273,-1.160141
77,-0.576307,-1.028122,-0.272084,-0.972542,-0.023659,-0.052494,-0.606635,-0.576475,-0.782397
78,-0.585509,-1.018547,-0.253771,-0.966118,-0.030886,-0.025188,-0.606635,-0.45056,-0.656482
79,-0.576307,-1.016154,-0.245922,-0.960495,-0.038114,-0.040448,-0.669518,-0.261763,-0.404801
80,-0.576307,-1.016154,-0.245922,-0.960495,-0.032492,-0.021975,-0.795433,-0.324646,-0.908311
81,-0.578608,-1.011366,-0.269468,-0.974953,-0.032492,-0.038037,-0.606635,0.05295,-0.467684
82,-0.578608,-1.023335,-0.253771,-0.964511,-0.022855,-0.040448,-0.669518,-0.387677,-0.530716
83,-0.576307,-1.018547,-0.272084,-0.984588,-0.023659,-0.014748,-0.480721,-0.513443,-0.467684
84,-0.574006,-1.020941,-0.248538,-0.972542,-0.030083,-0.030006,-0.480721,-0.198731,-0.908311
85,-0.569405,-1.025729,-0.277316,-0.973346,-0.034901,-0.04125,-0.040093,-0.135848,-0.530716
86,-0.571706,-1.016154,-0.251155,-0.972542,-0.023659,-0.016353,-0.291923,-0.261763,-0.971194
87,-0.571706,-1.016154,-0.251155,-0.973346,-0.034901,-0.05169,-0.669518,-0.198731,-0.845429
88,-0.562503,-1.018547,-0.277316,-0.974953,-0.034099,-0.047675,-0.669518,-0.513443,-0.530716
89,-0.562503,-1.016154,-0.272084,-0.973346,-0.039721,-0.037235,0.148705,-0.387677,-0.278886
90,-0.562503,-1.018547,-0.279932,-0.975755,-0.02687,-0.050085,-0.669518,-0.198731,-0.908311
91,-0.576307,-1.018547,-0.269468,-0.962102,-0.032492,-0.042857,-0.669518,-0.324646,-0.782397
92,-0.571706,-1.023335,-0.259003,-0.970133,-0.020446,-0.042857,-0.417838,-0.072965,-0.593599
93,-0.571706,-1.023335,-0.259003,-0.968526,-0.018839,-0.032417,-0.417838,-0.387677,-1.160141
94,-0.574006,-1.016154,-0.253771,-0.978164,-0.030886,-0.032417,-0.480721,-0.324646,-0.656482
95,-0.569405,-1.020941,-0.279932,-0.968526,-0.030886,-0.029204,-0.354806,-0.009933,-0.845429
96,-0.574006,-1.020941,-0.277316,-0.974953,-0.01643,-0.03081,-0.480721,-0.261763,-0.719514
97,-0.560203,-1.020941,-0.279932,-0.975755,-0.02125,-0.026795,-0.795433,-0.135848,-0.216004
98,-0.562503,-1.028122,-0.298246,-0.962102,-0.019644,-0.042857,-0.606635,-0.387677,-0.656482
99,-0.564804,-1.028122,-0.256387,-0.962904,-0.033297,-0.039644,-0.669518,-0.954071,-0.278886
100,-0.564804,-1.028122,-0.256387,-0.980573,-0.024461,-0.028401,-0.417838,-0.198731,-0.656482
101,-0.571706,-1.018547,-0.2747,-0.968526,-0.018037,-0.038037,-0.606635,-0.135848,-0.908311
102,-0.576307,-1.018547,-0.253771,-0.976557,-0.024461,-0.053297,-0.606635,-0.513443,-0.719514
103,-0.571706,-1.01376,-0.251155,-0.970937,-0.027674,-0.046068,-0.795433,-0.70239,-0.530716
104,-0.571706,-1.020941,-0.290397,-0.975755,-0.019644,-0.046068,-0.73255,-0.261763,-0.530716
105,-0.569405,-1.018547,-0.264235,-0.974953,-0.023659,-0.034826,-0.543603,-0.072965,-0.845429
106,-0.569405,-1.018547,-0.264235,-0.962904,-0.030083,-0.050888,-0.480721,-0.261763,-0.908311
107,-0.580908,-1.020941,-0.266851,-0.97174,-0.03169,-0.054903,-0.669518,-0.135848,-0.593599
108,-0.567104,-1.028122,-0.256387,-0.969331,-0.029281,-0.048479,-0.795433,-0.261763,-0.593599
109,-0.571706,-1.018547,-0.279932,-0.969331,-0.018839,-0.049281,-0.291923,-0.387677,-0.719514
110,-0.571706,-1.023335,-0.253771,-0.958087,-0.042934,-0.035628,-0.417838,-0.135848,-0.782397
111,-0.569405,-1.025729,-0.261619,-0.970133,-0.023659,-0.046068,-0.984231,-0.576475,-1.034226
112,-0.569405,-1.025729,-0.261619,-0.970937,-0.041327,-0.054101,-0.795433,-0.45056,-0.656482
113,-0.583209,-1.023335,-0.2747,-0.975755,-0.024461,-0.025991,-0.984231,-0.009933,-0.530716
114,-0.576307,-1.028122,-0.272084,-0.980573,-0.023659,-0.050085,-0.73255,0.05295,-0.530716
115,-0.580908,-1.030516,-0.277316,-0.965315,-0.03169,-0.028401,-0.606635,-0.765273,-0.719514
116,-0.564804,-1.03291,-0.256387,-0.978164,-0.026068,-0.054903,-0.669518,-0.387677,-1.160141
117,-0.571706,-1.025729,-0.266851,-0.973346,-0.025266,-0.055705,-0.984231,-0.576475,-0.530716
118,-0.571706,-1.037698,-0.269468,-0.96692,-0.025266,-0.038841,-0.543603,-0.009933,-0.908311
119,-0.571706,-1.037698,-0.269468,-0.969331,-0.030083,-0.052494,-0.480721,-0.576475,-0.656482
120,-0.564804,-1.025729,-0.256387,-0.973346,-0.022052,-0.040448,-0.606635,-0.513443,-0.971194
121,-0.569405,-1.023335,-0.266851,-0.980573,-0.022052,-0.025188,-0.921348,0.178865,-0.782397
122,-0.571706,-1.03291,-0.259003,-0.959693,-0.033297,-0.034826,-0.417838,-0.387677,-0.656482
123,-0.569405,-1.020941,-0.253771,-0.978968,-0.024461,-0.03081,-0.606635,-0.261763,-0.908311
124,-0.564804,-1.030516,-0.269468,-0.970133,-0.029281,-0.034826,-0.354806,-0.198731,-0.719514
125,-0.564804,-1.030516,-0.269468,-0.976557,-0.032492,-0.034022,-0.669518,-0.387677,-0.782397
126,-0.567104,-1.020941,-0.2747,-0.970133,-0.030886,-0.015551,-0.858316,-0.135848,-0.971194
127,-0.569405,-1.020941,-0.279932,-0.972542,-0.018037,-0.05169,-0.228891,-0.387677,-0.782397
128,-0.569405,-1.025729,-0.2747,-0.981377,-0.023659,-0.058919,-0.291923,-0.576475,-0.467684
129,-0.578608,-1.023335,-0.272084,-0.972542,-0.038917,-0.029204,-0.669518,-0.009933,-0.908311
130,-0.557902,-1.016154,-0.253771,-0.976557,-0.028477,-0.039644,-0.795433,-0.513443,-0.467684
131,-0.557902,-1.016154,-0.253771,-0.972542,-0.034901,-0.030006,-0.795433,-0.324646,-1.097109
132,-0.571706,-1.03291,-0.261619,-0.965315,-0.030886,-0.047675,-0.354806,-0.45056,-0.908311
133,-0.567104,-1.023335,-0.285165,-0.973346,-0.036508,-0.05169,-0.543603,-0.576475,-1.097109
134,-0.578608,-1.025729,-0.277316,-0.970937,-0.026068,-0.042857,-0.606635,-0.387677,-0.782397
135,-0.574006,-1.025729,-0.266851,-0.968526,-0.030083,-0.022779,-0.417838,-0.261763,-0.530716
136,-0.569405,-1.028122,-0.266851,-0.974953,-0.023659,-0.040448,-0.606635,-0.135848,-0.593599
137,-0.571706,-1.025729,-0.243306,-0.963709,-0.028477,-0.028401,-0.480721,-0.513443,-0.467684
138,-0.571706,-1.025729,-0.243306,-0.966118,-0.022855,-0.049281,-0.73255,-0.513443,-0.656482
139,-0.569405,-1.025729,-0.245922,-0.968526,-0.034901,-0.064541,-0.73255,0.115982,-0.782397
140,-0.569405,-1.03291,-0.264235,-0.973346,-0.025266,-0.034022,-0.291923,-0.009933,-1.223024
141,-0.564804,-1.025729,-0.264235,-0.966118,-0.030083,-0.04125,-0.480721,-0.387677,-0.656482
142,-0.564804,-1.030516,-0.261619,-0.96692,-0.022052,-0.053297,-0.669518,-0.387677,-0.656482
143,-0.560203,-1.020941,-0.269468,-0.962102,-0.020446,-0.038037,-0.543603,-0.261763,-0.719514
144,-0.560203,-1.020941,-0.269468,-0.980573,-0.022855,-0.058116,-0.858316,-0.072965,-0.845429
145,-0.562503,-1.023335,-0.259003,-0.975755,-0.022052,-0.048479,-0.858316,-0.45056,-0.719514
146,-0.569405,-1.025729,-0.248538,-0.968526,-0.036508,-0.057312,-0.669518,-0.387677,-0.656482
147,-0.571706,-1.03291,-0.277316,-0.978164,-0.022855,-0.046068,-0.291923,0.178865,-0.593599
148,-0.555601,-1.028122,-0.269468,-0.976557,-0.037312,-0.049281,-0.73255,-0.072965,-0.908311
149,-0.560203,-1.030516,-0.253771,-0.973346,-0.030886,-0.036432,-0.73255,-0.387677,-0.719514
150,-0.555601,-1.028122,-0.256387,-0.981377,-0.02687,-0.037235,-0.669518,-0.387677,-0.593599
151,-0.555601,-1.028122,-0.256387,-0.970937,-0.027674,-0.04125,-0.543603,-0.198731,-0.593599
152,-0.560203,-1.035304,-0.285165,-0.966118,-0.023659,-0.046068,-0.166008,-0.45056,-0.656482
153,-0.571706,-1.025729,-0.279932,-0.973346,-0.03169,-0.048479,-0.669518,-0.513443,-0.593599
154,-0.569405,-1.030516,-0.293013,-0.974953,-0.028477,-0.033219,-0.606635,-0.261763,-0.656482
155,-0.564804,-1.030516,-0.264235,-0.964511,-0.022052,-0.037235,-0.73255,-0.387677,-0.404801
156,-0.571706,-1.028122,-0.277316,-0.970937,-0.029281,-0.031613,-0.417838,0.05295,-0.656482
157,-0.571706,-1.028122,-0.277316,-0.965315,-0.027674,-0.05169,-0.291923,-0.324646,-0.593599
158,-0.574006,-1.023335,-0.2747,-0.963709,-0.025266,-0.035628,-0.480721,-0.198731,-0.593599
159,-0.567104,-1.03291,-0.272084,-0.978968,-0.02125,-0.034022,-0.354806,-0.324646,-0.656482
160,-0.567104,-1.028122,-0.266851,-0.977362,-0.030083,-0.038037,-0.480721,-0.324646,-0.593599
161,-0.564804,-1.040091,-0.285165,-0.975755,-0.027674,-0.044463,-0.73255,-0.324646,-0.656482
162,-0.567104,-1.037698,-0.277316,-0.972542,-0.020446,-0.046068,-0.417838,-0.261763,-0.467684
163,-0.567104,-1.037698,-0.277316,-0.973346,-0.038114,-0.062934,-0.606635,0.05295,-0.656482
164,-0.562503,-1.037698,-0.261619,-0.980573,-0.026068,-0.042857,-0.73255,-0.261763,-0.404801
165,-0.560203,-1.044879,-0.266851,-0.964511,-0.023659,-0.039644,-0.480721,-0.387677,-0.216004
166,-0.569405,-1.035304,-0.272084,-0.965315,-0.020446,-0.032417,-0.543603,-0.387677,-0.530716
167,-0.574006,-1.030516,-0.29563,-0.972542,-0.019644,-0.034826,-0.543603,-0.135848,-0.719514
168,-0.564804,-1.03291,-0.251155,-0.972542,-0.034099,-0.031613,-0.921348,-0.387677,-0.719514
169,-0.569405,-1.037698,-0.238074,-0.976557,-0.02125,-0.040448,-0.795433,-0.261763,-0.719514
170,-0.569405,-1.037698,-0.238074,-0.968526,-0.035705,-0.033219,-0.354806,-0.324646,-0.845429
171,-0.562503,-1.03291,-0.264235,-0.963709,-0.029281,-0.052494,-0.795433,0.115982,-0.656482
172,-0.569405,-1.025729,-0.269468,-0.968526,-0.032492,-0.036432,-1.298943,-0.072965,-0.719514
173,-0.567104,-1.025729,-0.272084,-0.965315,-0.033297,-0.034826,-0.480721,-0.072965,-0.593599
174,-0.571706,-1.020941,-0.282549,-0.975755,-0.03169,-0.038841,-0.73255,-0.576475,-0.845429
175,-0.564804,-1.025729,-0.264235,-0.984588,-0.02687,-0.057312,-1.110146,-0.387677,-1.034226
176,-0.564804,-1.025729,-0.264235,-0.96692,-0.038917,-0.00752,-0.543603,0.05295,-0.908311
177,-0.571706,-1.023335,-0.259003,-0.966118,-0.024461,-0.045266,-0.166008,-0.198731,-0.782397
178,-0.567104,-1.023335,-0.2747,-0.977362,-0.035705,-0.055705,-0.543603,-0.261763,-0.404801
179,-0.560203,-1.020941,-0.272084,-0.966118,-0.029281,-0.039644,-0.480721,-0.513443,-0.782397
180,-0.567104,-1.023335,-0.277316,-0.965315,-0.038114,-0.048479,-0.669518,-0.513443,-1.097109
181,-0.569405,-1.030516,-0.261619,-0.96692,-0.030083,-0.062132,-0.921348,-0.261763,-0.278886
182,-0.576307,-1.008972,-0.2747,-0.970937,-0.034099,-0.038841,-0.858316,-0.135848,-0.782397
183,-0.576307,-1.008972,-0.2747,-0.968526,-0.027674,-0.028401,-0.606635,-0.387677,-0.467684
184,-0.571706,-1.023335,-0.266851,-0.968526,-0.02125,-0.025188,-0.606635,-0.513443,-0.341769
185,-0.569405,-1.016154,-0.272084,-0.963709,-0.030886,-0.021173,-0.795433,-0.198731,-0.530716
186,-0.574006,-1.018547,-0.293013,-0.972542,-0.028477,-0.047675,-0.606635,-0.324646,-0.656482
187,-0.569405,-1.023335,-0.277316,-0.979771,-0.009202,-0.038037,-0.291923,-0.198731,-0.404801
188,-0.578608,-1.023335,-0.279932,-0.96692,-0.029281,-0.043659,-0.73255,-0.513443,-0.971194
189,-0.578608,-1.023335,-0.279932,-0.982984,-0.02125,-0.038841,-0.669518,-0.072965,-1.034226
190,-0.571706,-1.023335,-0.245922,-0.965315,-0.030083,-0.039644,-0.228891,-0.009933,-0.530716
191,-0.567104,-1.018547,-0.272084,-0.96692,-0.020446,-0.045266,-0.417838,-0.639358,-0.908311
192,-0.580908,-1.020941,-0.285165,-0.978164,-0.015628,-0.046872,-0.795433,-0.261763,-0.845429
193,-0.564804,-1.016154,-0.279932,-0.952465,-0.04213,-0.038037,-0.480721,-0.576475,-0.971194
194,-0.571706,-1.018547,-0.287781,-0.950858,-0.040523,-0.045266,-0.858316,-0.072965,-0.593599
195,-0.571706,-1.018547,-0.287781,-0.979771,-0.020446,-0.040448,-0.984231,-0.387677,-0.593599
196,-0.578608,-1.025729,-0.266851,-0.962102,-0.033297,-0.042857,-0.543603,-0.324646,-0.845429
197,-0.583209,-1.030516,-0.285165,-0.964511,-0.02125,-0.06695,-0.480721,-0.135848,-0.971194
198,-0.578608,-1.023335,-0.282549,-0.970133,-0.029281,-0.042857,-0.669518,-0.009933,-1.034226
199,-0.564804,-1.020941,-0.261619,-0.974149,-0.025266,-0.034022,-0.73255,-0.072965,-1.160141
200,-0.569405,-1.016154,-0.287781,-0.973346,-0.034099,-0.039644,-0.669518,-0.387677,-0.971194
201,-0.574006,-1.018547,-0.269468,-0.974149,-0.035705,-0.040448,-0.291923,-0.387677,-0.656482
202,-0.574006,-1.018547,-0.269468,-0.976557,-0.03169,-0.020369,-0.73255,-0.70239,-0.278886
203,-0.571706,-1.020941,-0.264235,-0.974953,-0.037312,-0.033219,-0.480721,0.115982,-0.908311
204,-0.569405,-1.028122,-0.290397,-0.965315,-0.038917,-0.045266,-0.417838,-0.70239,-0.152972
205,-0.580908,-1.018547,-0.287781,-0.968526,-0.033297,-0.025188,-0.858316,-0.261763,-0.656482
206,-0.583209,-1.023335,-0.282549,-0.96692,-0.030886,-0.006717,-0.73255,-0.387677,-0.971194
207,-0.580908,-1.023335,-0.290397,-0.965315,-0.03169,-0.029204,-0.417838,-0.198731,-0.656482
208,-0.580908,-1.023335,-0.290397,-0.967724,-0.035705,-0.029204,-0.858316,-0.70239,-0.341769
209,-0.583209,-1.020941,-0.272084,-0.972542,-0.015628,-0.023582,-0.73255,-0.639358,-0.593599
210,-0.567104,-1.03291,-0.261619,-0.962904,-0.041327,-0.046068,-0.291923,-0.45056,-1.097109
211,-0.578608,-1.03291,-0.264235,-0.963709,-0.027674,-0.028401,-0.543603,-0.135848,-0.467684
212,-0.578608,-1.025729,-0.264235,-0.975755,-0.014021,-0.054101,-0.543603,-0.45056,-1.160141
213,-0.569405,-1.020941,-0.256387,-0.962904,-0.026068,-0.027597,-0.417838,-0.135848,-0.152972
214,-0.569405,-1.020941,-0.256387,-0.96692,-0.033297,-0.037235,-0.606635,-0.639358,-0.908311
215,-0.578608,-1.023335,-0.251155,-0.970133,-0.030083,-0.043659,-0.669518,-0.198731,-0.530716
216,-0.564804,-1.020941,-0.266851,-0.963709,-0.019644,-0.01796,-0.543603,-0.198731,-0.782397
217,-0.576307,-1.025729,-0.256387,-0.984588,-0.023659,-0.044463,-0.669518,-0.261763,-0.782397
218,-0.578608,-1.035304,-0.266851,-0.970133,-0.027674,-0.045266,-0.543603,-0.324646,-0.782397
219,-0.571706,-1.025729,-0.243306,-0.974149,-0.025266,-0.047675,-0.669518,-0.45056,-1.223024
220,-0.574006,-1.023335,-0.261619,-0.970133,-0.040523,-0.036432,-0.166008,-0.639358,-0.845429
221,-0.574006,-1.023335,-0.261619,-0.979771,-0.034901,-0.055705,-0.543603,-0.324646,-0.593599
222,-0.580908,-1.028122,-0.253771,-0.974953,-0.034099,-0.039644,-0.543603,-0.261763,-0.845429
223,-0.583209,-1.018547,-0.256387,-0.965315,-0.024461,-0.030006,-1.047263,-0.009933,-0.216004
224,-0.576307,-1.023335,-0.266851,-0.970937,-0.029281,-0.052494,-0.669518,-0.513443,-0.782397
225,-0.574006,-1.025729,-0.2747,-0.977362,-0.022855,-0.061328,-0.669518,-0.135848,-0.719514
226,-0.578608,-1.025729,-0.261619,-0.970937,-0.030886,-0.039644,-0.606635,-0.324646,-0.656482
227,-0.578608,-1.025729,-0.261619,-0.969331,-0.030886,-0.050888,-0.166008,-0.576475,-0.845429
228,-0.571706,-1.023335,-0.222376,-0.978968,-0.029281,-0.031613,-0.669518,-0.387677,-0.656482
229,-0.578608,-1.016154,-0.277316,-0.97174,-0.034901,-0.033219,-0.291923,0.115982,-0.971194
230,-0.574006,-1.023335,-0.266851,-0.970937,-0.026068,-0.036432,-0.354806,-0.198731,-0.782397
231,-0.574006,-1.020941,-0.269468,-0.974953,-0.02125,-0.05169,-0.543603,-0.513443,-0.845429
232,-0.574006,-1.023335,-0.248538,-0.959693,-0.02687,-0.038841,-0.669518,-0.324646,-0.971194
233,-0.564804,-1.025729,-0.264235,-0.972542,-0.018839,-0.058919,-0.73255,-0.387677,-0.908311
234,-0.564804,-1.025729,-0.264235,-0.978968,-0.028477,-0.031613,-0.669518,-0.45056,-0.845429
235,-0.576307,-1.020941,-0.259003,-0.966118,-0.023659,-0.055705,-0.606635,-0.70239,-1.097109
236,-0.58781,-1.018547,-0.248538,-0.974149,-0.025266,-0.038841,-0.669518,-0.261763,-0.782397
237,-0.580908,-1.01376,-0.261619,-0.962904,-0.030083,-0.033219,-0.228891,-0.387677,-0.404801
238,-0.583209,-1.020941,-0.266851,-0.960495,-0.039721,-0.032417,-0.354806,-0.135848,-1.097109
239,-0.567104,-1.023335,-0.269468,-0.970937,-0.015628,-0.053297,-0.291923,-0.198731,-0.845429
240,-0.567104,-1.023335,-0.269468,-0.965315,-0.018037,-0.037235,-0.669518,-0.261763,-1.160141
241,-0.567104,-1.023335,-0.269468,-0.9613,-0.030083,-0.052494,-0.858316,-0.45056,-0.782397
242,-0.58781,-1.016154,-0.282549,-0.969331,-0.035705,-0.032417,-0.669518,-0.387677,-1.097109
243,-0.574006,-1.025729,-0.2747,-0.973346,-0.017235,-0.031613,-0.354806,-0.387677,-0.593599
244,-0.574006,-1.016154,-0.269468,-0.966118,-0.020446,-0.03081,-0.606635,-0.639358,-0.845429
245,-0.574006,-1.023335,-0.256387,-0.979771,-0.028477,-0.042053,-0.669518,-0.387677,-1.097109
246,-0.574006,-1.023335,-0.256387,-0.960495,-0.02125,-0.046872,-0.417838,-0.198731,-0.530716
247,-0.574006,-1.018547,-0.269468,-0.968526,-0.030083,-0.042857,-0.669518,-0.198731,-0.530716
248,-0.576307,-1.023335,-0.256387,-0.970133,-0.035705,-0.025991,-0.795433,-0.45056,-0.845429
249,-0.578608,-1.016154,-0.277316,-0.967724,-0.019644,-0.050888,-0.480721,-0.387677,-0.656482
250,-0.578608,-1.001791,-0.298246,-0.980573,-0.020446,-0.042053,-0.795433,-0.198731,-0.719514
251,-0.576307,-1.011366,-0.261619,-0.96692,-0.026068,-0.043659,-0.228891,0.05295,-0.530716
252,-0.574006,-1.01376,-0.287781,-0.970133,-0.02687,-0.052494,-0.166008,-0.072965,-1.034226
253,-0.574006,-1.01376,-0.287781,-0.968526,-0.026068,-0.04125,-0.480721,-0.261763,-0.782397
254,-0.574006,-1.016154,-0.264235,-0.974953,-0.033297,-0.035628,-0.543603,-0.387677,-0.908311
255,-0.569405,-1.023335,-0.272084,-0.97174,-0.014021,-0.031613,-0.480721,-0.261763,-0.656482
256,-0.571706,-1.016154,-0.266851,-0.976557,-0.023659,-0.039644,-0.417838,-0.576475,-1.034226
257,-0.580908,-1.03291,-0.272084,-0.972542,-0.018037,-0.024386,-0.921348,-0.324646,-1.034226
258,-0.576307,-1.028122,-0.264235,-0.975755,-0.035705,-0.030006,-0.606635,-0.324646,-0.845429
259,-0.576307,-1.028122,-0.264235,-0.968526,-0.024461,-0.044463,-0.669518,-0.387677,-0.341769
260,-0.578608,-1.028122,-0.256387,-0.970133,-0.026068,-0.032417,-0.669518,-0.261763,-0.656482
261,-0.578608,-1.03291,-0.266851,-0.970937,-0.032492,-0.046872,0.02279,-0.009933,-0.719514
262,-0.583209,-1.025729,-0.253771,-0.973346,-0.026068,-0.053297,-0.480721,-0.198731,-0.656482
263,-0.580908,-1.030516,-0.2747,-0.973346,-0.024461,-0.042857,-0.228891,-0.198731,-0.404801
264,-0.580908,-1.030516,-0.266851,-0.974149,-0.019644,-0.061328,-0.354806,-0.261763,-0.845429
265,-0.576307,-1.028122,-0.256387,-0.973346,-0.014824,-0.032417,-0.228891,0.05295,-0.530716
266,-0.576307,-1.028122,-0.256387,-0.976557,-0.026068,-0.033219,-0.669518,-0.45056,-0.971194
267,-0.58781,-1.028122,-0.266851,-0.962102,-0.015628,-0.048479,-0.669518,-0.135848,-0.719514
268,-0.576307,-1.03291,-0.279932,-0.969331,-0.034901,-0.04125,-0.73255,-0.45056,-0.782397
269,-0.580908,-1.03291,-0.2747,-0.966118,-0.029281,-0.050888,-0.291923,-0.513443,-0.971194
270,-0.580908,-1.025729,-0.261619,-0.974953,-0.03169,-0.034826,-0.795433,-0.135848,-0.467684
271,-0.585509,-1.03291,-0.259003,-0.97174,-0.028477,-0.034022,-0.166008,0.05295,-0.593599
272,-0.585509,-1.03291,-0.259003,-0.970133,-0.030083,-0.023582,-0.606635,-0.261763,-0.593599
273,-0.583209,-1.023335,-0.259003,-0.978968,-0.024461,-0.032417,-0.795433,0.115982,-0.782397
274,-0.585509,-1.030516,-0.293013,-0.974149,-0.02125,-0.046872,-0.669518,-0.324646,-0.845429
275,-0.592411,-1.040091,-0.272084,-0.972542,-0.033297,-0.033219,-1.047263,-0.261763,-1.034226
276,-0.578608,-1.03291,-0.285165,-0.9613,-0.038917,-0.067752,-0.606635,-0.198731,-0.530716
277,-0.580908,-1.028122,-0.290397,-0.974149,-0.013217,-0.044463,-0.166008,-0.70239,-0.593599
278,-0.580908,-1.028122,-0.290397,-0.974953,-0.033297,-0.052494,-0.480721,-0.198731,-0.530716
279,-0.578608,-1.035304,-0.264235,-0.984588,-0.022855,-0.034826,-0.606635,-0.261763,-0.719514
280,-0.594712,-1.03291,-0.277316,-0.978164,-0.024461,-0.034022,-0.795433,-0.45056,-0.971194
281,-0.585509,-1.028122,-0.264235,-0.969331,-0.025266,-0.046068,-0.73255,-0.009933,-0.530716
282,-0.594712,-1.025729,-0.269468,-0.97174,-0.02687,-0.047675,-0.291923,-0.387677,-1.285907
283,-0.592411,-1.023335,-0.293013,-0.974953,-0.025266,-0.036432,-0.73255,-0.387677,-0.971194
284,-0.585509,-1.020941,-0.266851,-0.968526,-0.033297,-0.037235,-0.669518,-0.261763,-1.160141
285,-0.585509,-1.020941,-0.266851,-0.97174,-0.028477,-0.047675,-0.480721,-0.324646,-0.782397
286,-0.590111,-1.028122,-0.287781,-0.976557,-0.032492,-0.031613,-0.606635,-0.072965,-0.656482
287,-0.58781,-1.016154,-0.264235,-0.970133,-0.024461,-0.025188,-0.669518,-0.387677,-1.034226
288,-0.583209,-1.028122,-0.277316,-0.973346,-0.034099,-0.04125,-0.669518,-0.513443,-0.908311
289,-0.583209,-1.025729,-0.2747,-0.974953,-0.022855,-0.034826,-0.73255,-0.387677,-1.348939
290,-0.58781,-1.030516,-0.298246,-0.966118,-0.036508,-0.038841,-0.984231,-0.70239,-0.593599
291,-0.58781,-1.030516,-0.298246,-0.958087,-0.036508,-0.023582,-0.606635,-0.45056,-0.845429
292,-0.583209,-1.025729,-0.279932,-0.980573,-0.024461,-0.038037,-0.606635,-0.324646,-1.034226
293,-0.578608,-1.025729,-0.277316,-0.96692,-0.04213,-0.035628,-0.417838,-0.324646,-0.782397
294,-0.578608,-1.037698,-0.272084,-0.962102,-0.038917,-0.048479,-0.291923,-0.198731,-0.593599
295,-0.578608,-1.023335,-0.298246,-0.968526,-0.026068,-0.037235,-0.291923,-0.576475,-0.656482
296,-0.585509,-1.030516,-0.293013,-0.967724,-0.036508,-0.038841,-0.228891,-0.198731,-0.845429
297,-0.585509,-1.030516,-0.293013,-0.970937,-0.030886,-0.026795,-0.921348,-0.576475,-0.845429
298,-0.583209,-1.020941,-0.269468,-0.968526,-0.028477,-0.038037,-0.228891,-0.45056,-1.223024
299,-0.576307,-1.018547,-0.290397,-0.972542,-0.030886,-0.048479,-0.543603,-0.072965,-0.971194
300,-0.585509,-1.018547,-0.306095,-0.980573,-0.030083,-0.038037,-0.921348,-0.45056,-0.719514
301,-0.567104,-1.020941,-0.2747,-0.955678,-0.030083,-0.034826,-0.354806,-0.576475,-0.719514
302,-0.578608,-1.025729,-0.290397,-0.968526,-0.033297,-0.05169,-0.543603,-0.639358,-0.530716
303,-0.578608,-1.03291,-0.298246,-0.973346,-0.019644,-0.022779,-0.166008,-0.639358,-0.971194
304,-0.578608,-1.03291,-0.298246,-0.970133,-0.03169,-0.038037,-0.480721,-0.135848,-0.656482
305,-0.578608,-1.025729,-0.290397,-0.97174,-0.02687,-0.050085,-0.417838,-0.387677,-0.908311
306,-0.580908,-1.023335,-0.285165,-0.972542,-0.029281,-0.021975,-0.480721,-0.135848,-0.719514
307,-0.578608,-1.018547,-0.261619,-0.972542,-0.025266,-0.044463,-0.543603,-0.513443,-0.782397
308,-0.576307,-1.030516,-0.298246,-0.976557,-0.022052,-0.030006,-0.543603,0.178865,-0.782397
309,-0.574006,-1.028122,-0.290397,-0.976557,-0.018037,-0.03081,-0.354806,-0.198731,-0.719514
310,-0.574006,-1.028122,-0.290397,-0.96692,-0.030886,-0.036432,-0.480721,-0.135848,-0.656482
311,-0.576307,-1.028122,-0.256387,-0.965315,-0.036508,-0.037235,-0.417838,-0.513443,-0.845429
312,-0.571706,-1.028122,-0.269468,-0.972542,-0.03169,-0.05169,-0.543603,-0.324646,-0.656482
313,-0.574006,-1.028122,-0.277316,-0.978164,-0.022052,-0.023582,-0.606635,-0.513443,-0.278886
314,-0.576307,-1.023335,-0.285165,-0.96692,-0.018037,-0.048479,-0.606635,-0.324646,-0.341769
315,-0.576307,-1.030516,-0.253771,-0.968526,-0.025266,-0.049281,0.085822,-0.261763,-0.152972
316,-0.578608,-1.028122,-0.264235,-0.976557,-0.034901,-0.039644,-0.669518,-0.261763,-0.845429
317,-0.578608,-1.028122,-0.264235,-0.968526,-0.022052,-0.04125,-0.291923,-0.387677,-0.908311
318,-0.567104,-1.028122,-0.277316,-0.973346,-0.027674,-0.026795,-0.73255,-0.513443,-0.593599
319,-0.574006,-1.016154,-0.259003,-0.975755,-0.023659,-0.046068,-0.417838,-0.324646,-0.782397
320,-0.564804,-1.03291,-0.253771,-0.970133,-0.028477,-0.048479,-0.606635,-0.576475,-0.656482
321,-0.571706,-1.028122,-0.261619,-0.978968,-0.030083,-0.033219,-0.543603,-0.45056,-0.845429
322,-0.576307,-1.030516,-0.2747,-0.965315,-0.02687,-0.022779,-0.73255,-0.387677,-1.097109
323,-0.576307,-1.030516,-0.2747,-0.974953,-0.017235,-0.043659,-0.858316,-0.135848,-0.341769
324,-0.571706,-1.020941,-0.298246,-0.982179,-0.022052,-0.037235,-0.795433,-0.198731,-1.034226
325,-0.567104,-1.018547,-0.256387,-0.974953,-0.020446,-0.008322,-0.858316,-0.387677,-0.656482
326,-0.583209,-1.03291,-0.259003,-0.982179,-0.019644,-0.045266,-0.606635,-0.261763,-0.467684
327,-0.585509,-1.037698,-0.272084,-0.982984,-0.030083,-0.048479,-0.606635,0.178865,-1.097109
328,-0.576307,-1.03291,-0.2747,-0.975755,-0.034901,-0.049281,-0.417838,-0.261763,-0.593599
329,-0.576307,-1.03291,-0.2747,-0.973346,-0.035705,-0.034022,-0.858316,-0.072965,-0.719514
330,-0.580908,-1.025729,-0.259003,-0.967724,-0.024461,-0.027597,-0.480721,-0.324646,-0.530716
331,-0.574006,-1.018547,-0.264235,-0.975755,-0.025266,-0.034022,-0.858316,-0.45056,-0.971194
332,-0.576307,-1.037698,-0.269468,-0.970937,-0.030083,-0.039644,-0.984231,-0.072965,-0.719514
333,-0.585509,-1.030516,-0.277316,-0.962904,-0.037312,-0.062934,-0.417838,-0.45056,-0.530716
334,-0.578608,-1.028122,-0.272084,-0.980573,-0.036508,-0.043659,-0.921348,-0.45056,-0.845429
335,-0.574006,-1.023335,-0.2747,-0.966118,-0.029281,-0.050085,-0.417838,-0.45056,-0.971194
336,-0.574006,-1.023335,-0.2747,-0.974953,-0.03169,-0.042053,-0.795433,-0.576475,-0.341769
337,-0.574006,-1.028122,-0.269468,-0.970133,-0.037312,-0.029204,-0.354806,-0.261763,-0.656482
338,-0.580908,-1.030516,-0.282549,-0.976557,-0.026068,-0.027597,-0.669518,-0.576475,-0.719514
339,-0.580908,-1.025729,-0.2747,-0.977362,-0.032492,-0.038037,-0.858316,0.05295,-0.593599
340,-0.574006,-1.020941,-0.285165,-0.96692,-0.028477,-0.039644,-0.103125,-0.513443,-0.341769
341,-0.574006,-1.020941,-0.2747,-0.969331,-0.024461,-0.028401,-0.606635,-0.45056,-0.782397
342,-0.574006,-1.020941,-0.2747,-0.962102,-0.024461,-0.034022,-0.417838,-0.576475,-0.656482
343,-0.58781,-1.025729,-0.277316,-0.980573,-0.027674,-0.04125,-0.73255,-0.513443,-0.719514
344,-0.576307,-1.035304,-0.290397,-0.965315,-0.02687,-0.059721,-0.543603,-0.387677,-0.656482
345,-0.580908,-1.023335,-0.277316,-0.959693,-0.034901,-0.032417,-0.669518,0.115982,-0.782397
346,-0.580908,-1.023335,-0.279932,-0.969331,-0.026068,-0.031613,-0.669518,-0.324646,-0.719514
347,-0.571706,-1.028122,-0.282549,-0.982984,-0.023659,-0.028401,-0.669518,-0.324646,-0.404801
348,-0.585509,-1.020941,-0.290397,-0.970133,-0.026068,-0.038841,-0.984231,-0.387677,-0.593599
349,-0.585509,-1.020941,-0.290397,-0.978968,-0.025266,-0.032417,-0.291923,-0.324646,-0.719514
350,-0.585509,-1.028122,-0.272084,-0.955678,-0.027674,-0.034022,-0.73255,-0.261763,-0.593599
351,-0.574006,-1.023335,-0.285165,-0.968526,-0.019644,-0.025188,-0.795433,-0.387677,-1.034226
352,-0.576307,-1.025729,-0.282549,-0.962102,-0.026068,-0.031613,-0.291923,-0.072965,-0.719514
353,-0.580908,-1.025729,-0.285165,-0.970937,-0.024461,-0.028401,-0.480721,-0.513443,-0.971194
354,-0.576307,-1.023335,-0.269468,-0.976557,-0.024461,-0.032417,-0.228891,0.430694,-0.656482
355,-0.576307,-1.023335,-0.269468,-0.968526,-0.023659,-0.050888,-0.669518,-0.261763,-0.908311
356,-0.590111,-1.018547,-0.287781,-0.96692,-0.034901,-0.037235,-0.480721,-0.576475,-1.223024
357,-0.58781,-1.030516,-0.266851,-0.974149,-0.018839,-0.035628,-0.354806,-0.261763,-0.719514
358,-0.583209,-1.028122,-0.272084,-0.973346,-0.032492,-0.019566,-0.354806,-0.072965,-0.971194
359,-0.583209,-1.030516,-0.259003,-0.964511,-0.030083,-0.033219,-0.228891,-0.261763,-0.216004
360,-0.592411,-1.028122,-0.2747,-0.97174,-0.018037,-0.035628,-0.795433,-0.45056,-0.216004
361,-0.592411,-1.028122,-0.2747,-0.968526,-0.017235,-0.038037,-0.291923,-0.324646,-0.908311
362,-0.58781,-1.020941,-0.259003,-0.967724,-0.027674,-0.046872,-0.606635,-0.009933,-0.593599
363,-0.585509,-1.020941,-0.279932,-0.969331,-0.022855,-0.025188,-0.291923,0.05295,-0.656482
364,-0.585509,-1.025729,-0.245922,-0.974149,-0.017235,-0.03081,-0.417838,-0.387677,-0.593599
365,-0.592411,-1.01376,-0.269468,-0.95648,-0.033297,-0.043659,-0.606635,0.05295,-0.845429
366,-0.580908,-1.023335,-0.272084,-0.968526,-0.025266,-0.058116,-0.73255,-0.324646,-0.719514
367,-0.576307,-1.016154,-0.285165,-0.974149,-0.033297,-0.044463,-0.354806,-0.198731,-0.341769
368,-0.576307,-1.016154,-0.285165,-0.97174,-0.028477,-0.029204,-0.795433,-0.324646,-0.341769
369,-0.58781,-1.025729,-0.272084,-0.966118,-0.024461,-0.016353,-0.606635,-0.324646,-0.593599
370,-0.583209,-1.028122,-0.279932,-0.972542,-0.020446,-0.032417,-0.354806,-0.198731,-0.341769
371,-0.583209,-1.023335,-0.290397,-0.974953,-0.02125,-0.042053,-0.73255,-0.513443,-0.782397
372,-0.576307,-1.030516,-0.290397,-0.973346,-0.02125,-0.035628,-0.795433,-0.198731,-0.152972
373,-0.574006,-1.035304,-0.272084,-0.965315,-0.030083,-0.042857,-0.543603,0.304779,-0.719514
374,-0.574006,-1.035304,-0.272084,-0.975755,-0.022052,-0.059721,-0.417838,-0.45056,-1.034226
375,-0.583209,-1.023335,-0.290397,-0.97174,-0.022052,-0.032417,-0.669518,-0.324646,-0.719514
376,-0.571706,-1.023335,-0.266851,-0.976557,-0.020446,-0.037235,-0.795433,-0.387677,-1.160141
377,-0.571706,-1.018547,-0.264235,-0.973346,-0.034901,-0.042053,-0.480721,-0.45056,-0.656482
378,-0.576307,-1.030516,-0.287781,-0.962102,-0.022052,-0.045266,-0.606635,0.05295,-0.593599
379,-0.590111,-1.020941,-0.248538,-0.974149,-0.028477,-0.057312,-0.480721,-0.639358,-1.097109
380,-0.590111,-1.020941,-0.248538,-0.962102,-0.038114,-0.04125,-0.921348,-0.261763,-0.845429
381,-0.578608,-1.025729,-0.287781,-0.982179,-0.020446,-0.058116,-0.795433,-0.45056,-0.278886
382,-0.574006,-1.028122,-0.293013,-0.969331,-0.029281,-0.042053,-0.606635,-0.072965,-0.719514
383,-0.578608,-1.018547,-0.282549,-0.976557,-0.028477,-0.040448,-0.73255,-0.261763,-0.404801
384,-0.576307,-1.023335,-0.272084,-0.97174,-0.018839,-0.035628,-0.040093,-0.072965,-0.530716
385,-0.578608,-1.03291,-0.282549,-0.970133,-0.023659,-0.029204,-0.354806,-0.072965,-0.782397
386,-0.574006,-1.023335,-0.293013,-0.962904,-0.028477,-0.025991,-0.354806,-0.765273,-0.656482
387,-0.574006,-1.023335,-0.293013,-0.970937,-0.023659,-0.019566,-0.669518,-0.324646,-0.908311
388,-0.576307,-1.025729,-0.290397,-0.97174,-0.032492,-0.04125,-0.103125,-0.576475,-0.908311
389,-0.569405,-1.025729,-0.277316,-0.970937,-0.020446,-0.04125,-0.858316,0.115982,-0.593599
390,-0.574006,-1.025729,-0.311327,-0.969331,-0.030886,-0.028401,-0.417838,-0.639358,-0.404801
391,-0.571706,-1.016154,-0.272084,-0.963709,-0.026068,-0.065343,-0.480721,-0.576475,-0.593599
392,-0.567104,-1.023335,-0.266851,-0.972542,-0.035705,-0.049281,-0.417838,-0.45056,-0.530716
393,-0.567104,-1.023335,-0.266851,-0.967724,-0.03169,-0.028401,-0.417838,-0.135848,-0.656482
394,-0.569405,-1.018547,-0.261619,-0.972542,-0.030083,-0.038841,-0.669518,-0.45056,-0.341769
395,-0.569405,-1.025729,-0.285165,-0.967724,-0.02687,-0.036432,-0.417838,-0.009933,-0.971194
396,-0.567104,-1.020941,-0.259003,-0.96692,-0.026068,-0.021173,-0.291923,-0.009933,-0.404801
397,-0.574006,-1.01376,-0.303478,-0.974149,-0.023659,-0.03081,-0.417838,-0.072965,-0.278886
398,-0.576307,-1.01376,-0.272084,-0.972542,-0.029281,-0.016353,-0.354806,-0.198731,-1.034226
399,-0.571706,-1.018547,-0.272084,-0.980573,-0.034099,-0.035628,-0.795433,0.115982,-0.404801
400,-0.571706,-1.018547,-0.272084,-0.962102,-0.023659,-0.034826,-0.669518,-0.261763,-0.278886
401,-0.571706,-1.018547,-0.279932,-0.969331,-0.026068,-0.033219,-0.669518,-0.072965,-1.348939
402,-0.569405,-1.028122,-0.272084,-0.977362,-0.017235,-0.044463,-0.480721,-0.576475,-0.971194
403,-0.576307,-1.030516,-0.285165,-0.982984,-0.026068,-0.058919,-0.040093,-0.513443,-0.341769
404,-0.574006,-1.03291,-0.279932,-0.960495,-0.029281,-0.032417,-1.047263,-0.135848,-0.845429
405,-0.567104,-1.028122,-0.298246,-0.965315,-0.030083,-0.054101,-0.480721,-0.009933,-0.719514
406,-0.567104,-1.028122,-0.298246,-0.979771,-0.026068,-0.046872,-0.291923,-0.198731,-0.467684
407,-0.574006,-1.020941,-0.269468,-0.969331,-0.038917,-0.034022,-0.354806,-0.072965,-0.845429
408,-0.569405,-1.008972,-0.2747,-0.968526,-0.040523,-0.045266,-0.417838,-0.387677,-0.530716
409,-0.574006,-1.01376,-0.272084,-0.973346,-0.027674,-0.045266,-0.543603,-0.387677,-1.223024
410,-0.567104,-1.025729,-0.259003,-0.959693,-0.02687,-0.035628,-0.103125,-0.198731,-0.845429
411,-0.564804,-1.020941,-0.248538,-0.965315,-0.023659,-0.030006,-0.291923,-0.135848,-0.845429
412,-0.564804,-1.020941,-0.248538,-0.970937,-0.026068,-0.031613,-0.228891,-0.45056,-0.719514
413,-0.569405,-1.01376,-0.269468,-0.960495,-0.023659,-0.042857,-0.795433,-0.009933,-0.530716
414,-0.576307,-1.035304,-0.259003,-0.974149,-0.018839,-0.034826,-0.543603,-0.639358,-0.467684
415,-0.576307,-1.028122,-0.253771,-0.968526,-0.024461,-0.040448,-0.606635,-0.576475,-0.782397
416,-0.571706,-1.028122,-0.287781,-0.975755,-0.030083,-0.035628,-0.73255,-0.198731,-0.971194
417,-0.583209,-1.025729,-0.264235,-0.984588,-0.02125,-0.036432,-1.047263,-0.198731,-0.656482
418,-0.580908,-1.008972,-0.290397,-0.96692,-0.034099,-0.046068,-0.606635,-0.324646,-0.593599
419,-0.580908,-1.008972,-0.290397,-0.972542,-0.036508,-0.025188,-0.669518,-0.324646,-0.467684
420,-0.580908,-1.020941,-0.282549,-0.97174,-0.030886,-0.033219,-0.921348,-0.324646,-0.530716
421,-0.585509,-1.01376,-0.277316,-0.982179,-0.030083,-0.030006,-0.795433,-0.324646,-0.908311
422,-0.58781,-1.018547,-0.277316,-0.975755,-0.026068,-0.038841,-0.543603,-0.891188,-1.097109
423,-0.574006,-1.025729,-0.279932,-0.966118,-0.026068,-0.044463,0.085822,-0.009933,-0.782397
424,-0.583209,-1.03291,-0.300862,-0.977362,-0.030083,-0.029204,-0.795433,-0.639358,-0.656482
425,-0.583209,-1.03291,-0.300862,-0.97174,-0.034099,-0.044463,-0.480721,-0.009933,-0.530716
426,-0.574006,-1.025729,-0.277316,-0.975755,-0.034099,-0.021975,-0.354806,-0.324646,-0.530716
427,-0.571706,-1.025729,-0.279932,-0.969331,-0.018839,-0.028401,-0.291923,-0.198731,-0.719514
428,-0.576307,-1.028122,-0.2747,-0.964511,-0.019644,-0.027597,-0.543603,-0.324646,-0.908311
429,-0.580908,-1.020941,-0.290397,-0.970133,-0.03169,-0.048479,-0.291923,-0.009933,-0.530716
430,-0.58781,-1.016154,-0.290397,-0.962904,-0.022052,-0.052494,-0.795433,-0.576475,-0.782397
431,-0.583209,-1.035304,-0.290397,-0.964511,-0.026068,-0.032417,-0.795433,-0.198731,-0.782397
432,-0.583209,-1.035304,-0.290397,-0.977362,-0.020446,-0.03081,-0.73255,-0.135848,-0.719514
433,-0.578608,-1.028122,-0.303478,-0.984588,-0.032492,-0.023582,-0.543603,-0.324646,-0.404801
434,-0.576307,-1.028122,-0.285165,-0.959693,-0.025266,-0.031613,-0.984231,-0.45056,-0.845429
435,-0.574006,-1.028122,-0.285165,-0.96692,-0.022855,-0.059721,-0.795433,-0.576475,-0.782397
436,-0.571706,-1.025729,-0.287781,-0.970937,-0.037312,-0.027597,-0.354806,-0.45056,-1.285907
437,-0.576307,-1.023335,-0.285165,-0.974149,-0.018839,-0.038037,-1.047263,-0.45056,-0.593599
438,-0.576307,-1.023335,-0.285165,-0.970133,-0.032492,-0.038841,-0.417838,-0.45056,-0.782397
439,-0.580908,-1.028122,-0.293013,-0.962102,-0.036508,-0.04125,-0.417838,-0.261763,-0.530716
440,-0.576307,-1.030516,-0.290397,-0.979771,-0.025266,-0.030006,-0.228891,-0.072965,-0.845429
441,-0.571706,-1.030516,-0.2747,-0.967724,-0.015628,-0.04125,-0.858316,-0.387677,-0.467684
442,-0.571706,-1.037698,-0.2747,-0.965315,-0.027674,-0.03081,-0.606635,-0.135848,-0.845429
443,-0.574006,-1.030516,-0.253771,-0.965315,-0.025266,-0.036432,-0.354806,-0.261763,-1.097109
444,-0.574006,-1.030516,-0.253771,-0.970133,-0.019644,-0.044463,-0.73255,-0.45056,-0.656482
445,-0.578608,-1.035304,-0.269468,-0.973346,-0.034901,-0.020369,-0.543603,-0.198731,-1.034226
446,-0.562503,-1.030516,-0.261619,-0.96692,-0.02687,-0.030006,-0.354806,-0.135848,-0.908311
447,-0.576307,-1.03291,-0.2747,-0.976557,-0.030083,-0.046872,-0.795433,-0.576475,-0.845429
448,-0.571706,-1.030516,-0.277316,-0.976557,-0.039721,-0.039644,-0.543603,-0.70239,-1.223024
449,-0.578608,-1.028122,-0.282549,-0.968526,-0.01643,-0.038841,-0.795433,-0.072965,-0.782397
450,-0.574006,-1.035304,-0.277316,-0.97174,-0.02687,-0.020369,-0.73255,0.05295,-0.782397
451,-0.574006,-1.035304,-0.277316,-0.972542,-0.02687,-0.049281,-0.166008,-0.135848,-0.467684
452,-0.574006,-1.023335,-0.287781,-0.978968,-0.020446,-0.035628,-0.354806,-0.198731,-0.467684
453,-0.576307,-1.023335,-0.279932,-0.966118,-0.028477,-0.036432,-1.047263,-0.198731,-0.845429
454,-0.574006,-1.030516,-0.298246,-0.96692,-0.033297,-0.045266,-0.480721,-0.261763,-0.404801
455,-0.585509,-1.03291,-0.272084,-0.982179,-0.032492,-0.034826,-0.73255,-0.198731,-0.341769
456,-0.580908,-1.03291,-0.300862,-0.97174,-0.022855,-0.034022,-0.291923,-0.009933,-0.404801
457,-0.580908,-1.03291,-0.300862,-0.975755,-0.030083,-0.015551,-0.543603,-0.45056,-0.278886
458,-0.569405,-1.035304,-0.279932,-0.970133,-0.028477,-0.046872,-0.669518,-0.324646,-0.782397
459,-0.576307,-1.03291,-0.259003,-0.975755,-0.029281,-0.038841,-0.858316,-0.765273,-0.593599
460,-0.560203,-1.030516,-0.259003,-0.963709,-0.020446,-0.050888,-0.228891,0.115982,-0.467684
461,-0.569405,-1.025729,-0.259003,-0.967724,-0.022855,-0.042053,-0.606635,0.304779,-0.656482
462,-0.574006,-1.020941,-0.282549,-0.97174,-0.023659,-0.038037,-0.606635,-0.324646,-0.908311
463,-0.569405,-1.023335,-0.29563,-0.97174,-0.022855,-0.027597,-0.417838,-0.072965,-0.656482
464,-0.569405,-1.023335,-0.29563,-0.977362,-0.026068,-0.025991,-0.795433,-0.576475,-0.656482
465,-0.571706,-1.018547,-0.282549,-0.984588,-0.034099,-0.023582,-0.480721,-0.072965,-0.341769
466,-0.569405,-1.03291,-0.259003,-0.96692,-0.027674,-0.024386,-0.291923,-0.576475,-0.908311
467,-0.564804,-1.037698,-0.2747,-0.973346,-0.02687,-0.038841,-0.73255,-0.072965,-0.782397
468,-0.560203,-1.030516,-0.256387,-0.978164,-0.023659,-0.062132,-0.543603,-0.072965,-0.404801
469,-0.567104,-1.028122,-0.251155,-0.964511,-0.033297,-0.033219,-0.669518,-0.135848,-0.719514
470,-0.567104,-1.028122,-0.251155,-0.970133,-0.027674,-0.034826,-0.606635,-0.387677,-0.278886
471,-0.564804,-1.020941,-0.2747,-0.965315,-0.024461,-0.027597,-0.795433,-0.387677,-0.971194
472,-0.578608,-1.035304,-0.261619,-0.970133,-0.026068,-0.033219,-0.543603,-0.198731,-0.971194
473,-0.569405,-1.025729,-0.261619,-0.973346,-0.022855,-0.049281,-0.669518,-0.324646,-0.530716
474,-0.576307,-1.030516,-0.272084,-0.96692,-0.030083,-0.042053,-0.228891,-0.135848,-0.845429
475,-0.569405,-1.025729,-0.290397,-0.968526,-0.038114,-0.05651,-0.606635,-0.387677,-0.845429
476,-0.569405,-1.025729,-0.290397,-0.97174,-0.028477,-0.048479,-0.166008,-0.387677,-0.908311
477,-0.578608,-1.030516,-0.259003,-0.976557,-0.019644,-0.036432,-0.73255,-0.261763,-0.656482
478,-0.567104,-1.042485,-0.287781,-0.978968,-0.019644,-0.023582,-0.73255,-0.639358,-0.908311
479,-0.576307,-1.028122,-0.308711,-0.960495,-0.034901,-0.039644,-0.354806,-0.324646,-0.467684
480,-0.578608,-1.016154,-0.290397,-0.981377,-0.030886,-0.036432,-0.480721,-0.324646,-0.278886
481,-0.574006,-1.016154,-0.279932,-0.966118,-0.029281,-0.035628,-0.73255,-0.513443,-0.593599
482,-0.571706,-1.018547,-0.264235,-0.974953,-0.018037,-0.040448,-0.669518,-0.261763,-0.593599
483,-0.571706,-1.018547,-0.264235,-0.978164,-0.018839,-0.045266,-0.480721,-0.135848,-0.278886
484,-0.564804,-1.025729,-0.282549,-0.97174,-0.030083,-0.034826,-0.921348,-0.45056,-0.782397
485,-0.569405,-1.023335,-0.269468,-0.970937,-0.02125,-0.027597,-0.354806,-0.639358,-0.719514
486,-0.569405,-1.020941,-0.245922,-0.964511,-0.032492,-0.064541,-0.291923,-0.45056,-0.593599
487,-0.564804,-1.020941,-0.282549,-0.973346,-0.03169,-0.046872,-0.73255,-0.009933,-1.097109
488,-0.564804,-1.03291,-0.261619,-0.976557,-0.025266,-0.05651,-0.417838,-0.324646,-0.593599
489,-0.564804,-1.03291,-0.261619,-0.972542,-0.02125,-0.065343,-0.417838,-0.513443,-0.782397
490,-0.564804,-1.03291,-0.264235,-0.973346,-0.025266,-0.044463,-0.354806,-0.198731,-0.908311
491,-0.578608,-1.03291,-0.253771,-0.962102,-0.032492,-0.036432,-0.228891,-0.45056,-0.719514
492,-0.576307,-1.035304,-0.266851,-0.9613,-0.023659,-0.045266,-0.606635,-0.198731,-0.719514
493,-0.574006,-1.03291,-0.2747,-0.968526,-0.03169,-0.046872,-0.166008,-0.828156,-0.845429
494,-0.569405,-1.035304,-0.266851,-0.970937,-0.024461,-0.032417,-0.543603,-0.261763,-0.845429
495,-0.569405,-1.035304,-0.266851,-0.978164,-0.029281,-0.03081,-0.606635,0.05295,-0.782397
496,-0.567104,-1.040091,-0.264235,-0.967724,-0.022855,-0.037235,-0.543603,-0.387677,-0.719514
497,-0.576307,-1.030516,-0.272084,-0.966118,-0.024461,-0.032417,-0.795433,0.115982,-0.782397
498,-0.574006,-1.030516,-0.264235,-0.979771,-0.029281,-0.043659,-0.228891,-0.198731,-1.285907
499,-0.576307,-1.023335,-0.2747,-0.973346,-0.024461,-0.026795,-0.669518,-0.261763,-1.160141
500,-0.580908,-1.018547,-0.259003,-0.974149,-0.032492,-0.020369,-0.543603,-0.45056,-0.719514
501,-0.571706,-1.016154,-0.2747,-0.973346,-0.023659,-0.040448,-1.110146,-0.387677,-0.719514
502,-0.571706,-1.016154,-0.2747,-0.970133,-0.029281,-0.05651,-0.73255,-0.324646,-0.719514
503,-0.567104,-1.025729,-0.266851,-0.978164,-0.020446,-0.028401,-0.103125,-0.387677,-0.656482
504,-0.567104,-1.030516,-0.248538,-0.966118,-0.032492,-0.052494,-0.795433,0.115982,-0.656482
505,-0.574006,-1.03291,-0.256387,-0.968526,-0.024461,-0.014748,-0.291923,-0.072965,-0.341769
506,-0.567104,-1.025729,-0.243306,-0.973346,-0.018037,-0.039644,-0.291923,-0.70239,-0.971194
507,-0.567104,-1.035304,-0.243306,-0.975755,-0.025266,-0.05169,-0.858316,-0.387677,-0.467684
508,-0.567104,-1.035304,-0.243306,-0.965315,-0.032492,-0.01796,-0.480721,0.178865,-0.782397
509,-0.564804,-1.03291,-0.256387,-0.969331,-0.024461,-0.040448,-0.795433,-0.70239,-0.467684
510,-0.571706,-1.040091,-0.259003,-0.970133,-0.039721,-0.020369,-0.480721,-0.198731,-0.908311
511,-0.571706,-1.028122,-0.279932,-0.97174,-0.017235,-0.028401,-0.543603,-0.513443,-0.216004
512,-0.585509,-1.030516,-0.266851,-0.955678,-0.01643,-0.039644,-0.921348,-0.45056,-1.097109
513,-0.564804,-1.030516,-0.253771,-0.969331,-0.025266,-0.038841,-0.73255,-0.324646,-0.971194
514,-0.567104,-1.035304,-0.256387,-0.962102,-0.033297,-0.050888,-0.606635,-0.45056,-0.341769
515,-0.567104,-1.035304,-0.256387,-0.976557,-0.026068,-0.050888,-0.480721,-0.198731,-0.593599
516,-0.564804,-1.03291,-0.293013,-0.972542,-0.030886,-0.050888,-0.543603,-0.198731,-1.160141
517,-0.567104,-1.030516,-0.266851,-0.972542,-0.034901,-0.054101,-0.354806,-0.072965,-0.845429
518,-0.557902,-1.023335,-0.279932,-0.978164,-0.028477,-0.031613,-0.606635,0.304779,-0.593599
519,-0.574006,-1.025729,-0.279932,-0.969331,-0.018839,-0.034022,-0.291923,-0.198731,-0.656482
520,-0.569405,-1.030516,-0.245922,-0.979771,-0.018037,-0.038037,-0.354806,-0.261763,-0.782397
521,-0.569405,-1.030516,-0.245922,-0.973346,-0.032492,-0.032417,-0.795433,-0.135848,-0.782397
522,-0.553301,-1.030516,-0.290397,-0.957284,-0.022855,-0.034022,-0.606635,-0.513443,-0.278886
523,-0.569405,-1.030516,-0.282549,-0.963709,-0.023659,-0.050085,-0.543603,-0.009933,-0.530716
524,-0.560203,-1.028122,-0.259003,-0.974953,-0.025266,-0.042053,-0.166008,-0.513443,-0.782397
525,-0.567104,-1.025729,-0.285165,-0.969331,-0.030083,-0.033219,-0.984231,0.178865,-0.656482
526,-0.571706,-1.037698,-0.272084,-0.97174,-0.019644,-0.054903,-0.543603,-0.324646,-0.719514
527,-0.571706,-1.037698,-0.272084,-0.973346,-0.026068,-0.033219,-0.291923,-0.072965,-0.782397
528,-0.560203,-1.023335,-0.259003,-0.969331,-0.041327,-0.04125,-0.606635,-0.072965,-0.782397
529,-0.564804,-1.028122,-0.277316,-0.97174,-0.035705,-0.033219,-0.354806,-0.135848,-0.593599
530,-0.560203,-1.030516,-0.264235,-0.962102,-0.034099,-0.034826,-0.606635,-0.324646,-0.782397
531,-0.562503,-1.035304,-0.272084,-0.974149,-0.014021,-0.052494,-0.858316,-0.45056,-0.467684
532,-0.555601,-1.03291,-0.269468,-0.982984,-0.022052,-0.034826,-0.921348,-0.576475,-0.782397
533,-0.562503,-1.030516,-0.264235,-0.968526,-0.028477,-0.066147,-0.480721,-0.198731,-0.845429
534,-0.562503,-1.030516,-0.264235,-0.978164,-0.020446,-0.042053,-0.73255,-0.45056,-0.971194
535,-0.560203,-1.023335,-0.2747,-0.974149,-0.013217,-0.046872,-0.606635,-0.324646,-0.719514
536,-0.564804,-1.035304,-0.245922,-0.965315,-0.025266,-0.039644,-0.606635,-0.324646,-0.656482
537,-0.564804,-1.028122,-0.269468,-0.97174,-0.020446,-0.030006,-0.984231,-0.45056,-0.845429
538,-0.569405,-1.030516,-0.2747,-0.972542,-0.02125,-0.035628,-0.669518,-0.45056,-0.719514
539,-0.569405,-1.035304,-0.251155,-0.978164,-0.023659,-0.050888,-0.795433,-0.198731,-0.530716
540,-0.569405,-1.035304,-0.251155,-0.965315,-0.042934,-0.013944,-0.291923,-0.261763,-1.097109
541,-0.574006,-1.020941,-0.2747,-0.964511,-0.027674,-0.036432,-0.103125,-0.261763,-0.719514
542,-0.562503,-1.025729,-0.248538,-0.97174,-0.028477,-0.050888,-0.73255,-0.45056,-0.719514
543,-0.569405,-1.018547,-0.264235,-0.976557,-0.025266,-0.054903,-0.040093,-0.261763,-0.845429
544,-0.562503,-1.01376,-0.259003,-0.97174,-0.034901,-0.024386,-0.669518,-0.135848,-1.160141
545,-0.567104,-1.023335,-0.269468,-1.192594,0.015693,-0.020369,-0.103125,6.787977,-1.160141
546,-0.562503,-1.025729,-0.2747,-0.975755,-0.041327,-0.054101,-0.73255,0.619492,0.413422
547,-0.562503,-1.025729,-0.2747,-0.989408,-0.05257,-0.025188,-0.480721,-4.47894,-0.656482
548,-0.567104,-1.023335,-0.251155,-1.143604,0.009269,-0.033219,-0.480721,-1.898208,2.679441
549,-0.569405,-1.030516,-0.264235,-0.9613,-0.005186,-0.050085,-0.480721,-0.954071,1.294676
550,-0.569405,-1.020941,-0.264235,-0.936403,-0.034099,-0.046872,-0.795433,-1.079985,0.665251
551,-0.564804,-1.03291,-0.269468,-0.96692,-0.001975,-0.054903,-0.417838,-1.394698,0.476453
552,-0.574006,-1.020941,-0.253771,-0.978968,-0.01643,-0.040448,-0.73255,-0.639358,-0.152972
553,-0.574006,-1.020941,-0.253771,-1.003863,-0.010006,-0.029204,-0.417838,-0.70239,-0.530716
554,-0.567104,-1.016154,-0.277316,-0.986195,-0.010006,-0.033219,-0.291923,0.556609,-0.530716
555,-0.567104,-1.018547,-0.272084,-0.962904,-0.030886,-0.048479,-0.606635,-0.639358,-0.971194
556,-0.562503,-1.020941,-0.251155,-0.979771,-0.010006,-0.006717,-2.49491,-2.653548,-0.404801
557,-0.560203,-1.020941,-0.272084,-0.986999,-0.005991,0.013362,-7.908055,-0.072965,-1.034226
558,-0.567104,-1.028122,-0.238074,-0.915521,0.018907,0.013362,-14.454135,-4.604855,-0.656482
559,-0.567104,-1.028122,-0.238074,-1.082568,-0.235679,-0.072572,-10.929266,7.165572,3.371898
560,-0.574006,-1.025729,-0.256387,-0.962904,-0.01643,-0.058919,0.715247,15.222332,0.539336
561,-0.569405,-1.028122,-0.277316,-0.915521,-0.006793,-0.038841,-0.858316,-6.933758,0.287656
562,-0.567104,-1.03291,-0.251155,-0.928372,-0.03169,-0.038841,-0.417838,-22.10314,-0.152972
563,-0.562503,-1.028122,-0.248538,-0.909097,-0.008399,0.03103,-1.739571,-0.828156,-1.160141
564,-0.578608,-1.025729,-0.261619,-1.040003,-0.038114,-0.082209,-0.166008,14.341228,-0.341769
565,-0.580908,-1.030516,-0.24069,-0.99503,-0.014021,-0.058919,-0.543603,3.32599,0.539336
566,-0.580908,-1.030516,-0.24069,-0.962102,-0.025266,-0.055705,-0.795433,-10.773339,0.728283
567,-0.567104,-1.018547,-0.266851,-0.929174,-0.039721,0.027013,-2.054283,-4.038313,-0.530716
568,-0.574006,-1.035304,-0.245922,-0.999848,-0.030083,-0.066147,-0.543603,9.683272,-0.278886
569,-0.571706,-1.035304,-0.264235,-0.9613,-0.007597,-0.05651,-0.795433,-0.387677,0.476453
570,-0.569405,-1.044879,-0.285165,-0.947647,-0.014021,-0.040448,-1.298943,-9.451458,0.602368
571,-0.576307,-1.042485,-0.279932,-0.962904,-0.020446,-0.031613,-0.166008,5.277297,-0.027057
572,-0.576307,-1.042485,-0.279932,-0.972542,-0.023659,-0.053297,-2.117315,1.186034,-1.474854
573,-0.574006,-1.03291,-0.293013,-0.986195,-0.03169,-0.046068,-6.397376,-8.00381,-1.411822
574,-0.567104,-1.035304,-0.264235,-0.980573,-0.01643,-0.050888,-11.118213,4.584989,-0.845429
575,-0.562503,-1.025729,-0.253771,-0.974953,-0.025266,-0.069358,-18.797228,-1.835325,-0.971194
576,-0.560203,-1.03291,-0.253771,-0.951662,-0.02687,-0.012338,-27.735243,-0.513443,-0.908311
577,-0.562503,-1.028122,-0.269468,-0.976557,-0.036508,-0.046068,-36.169598,2.318969,-1.978364
578,-0.564804,-1.025729,-0.269468,-0.974953,-0.029281,-0.023582,-38.435616,-1.646528,-2.418991
579,-0.564804,-1.025729,-0.269468,-0.964511,-0.030083,-0.022779,-30.190062,1.500747,-0.782397
580,-0.560203,-1.040091,-0.264235,-0.960495,-0.040523,-0.027597,-24.651001,-0.387677,-1.411822
581,-0.564804,-1.028122,-0.272084,-0.982984,-0.022052,-0.01796,-20.181992,-1.520613,-1.348939
582,-0.557902,-1.035304,-0.287781,-0.974149,-0.026068,-0.04125,-19.11194,0.682375,-1.474854
583,-0.557902,-1.035304,-0.285165,-0.977362,-0.049358,-0.038841,-21.629789,-0.45056,-1.223024
584,-0.562503,-1.03291,-0.308711,-0.99503,-0.026068,-0.052494,-19.237854,-0.891188,-1.411822
585,-0.562503,-1.03291,-0.308711,-0.978968,-0.018839,-0.05651,-19.552567,1.186034,-1.160141
586,-0.571706,-1.03291,-0.298246,-0.970133,-0.032492,-0.020369,-22.448013,-0.954071,-0.845429
587,-0.555601,-1.035304,-0.324408,-0.966118,-0.027674,-0.033219,-19.36377,1.689544,-0.971194
588,-0.555601,-1.037698,-0.308711,-0.974953,-0.017235,-0.029204,-25.40634,-0.513443,-1.726534
589,-0.557902,-1.040091,-0.308711,-0.983786,-0.022052,-0.070163,-24.462202,1.941225,-1.915481
590,-0.569405,-1.040091,-0.347954,-0.967724,-0.025266,0.006935,-22.63681,-1.2059,-1.160141
591,-0.569405,-1.040091,-0.347954,-0.97174,-0.01643,-0.040448,-23.580948,0.430694,-0.971194
592,-0.555601,-1.030516,-0.321792,-0.982984,-0.02125,-0.058919,-21.755556,-0.135848,-0.971194
593,-0.560203,-1.025729,-0.303478,-0.978968,-0.030083,-0.067752,-21.944502,-0.765273,-1.034226
594,-0.569405,-1.028122,-0.327024,-0.982179,-0.020446,-0.048479,-24.462202,0.934205,-1.411822
595,-0.557902,-1.030516,-0.321792,-0.955678,-0.029281,-0.015551,-23.89566,0.178865,-1.285907
596,-0.564804,-1.025729,-0.300862,-0.974953,-0.023659,-0.04125,-23.266235,-0.198731,-1.537737
597,-0.555601,-1.030516,-0.306095,-0.960495,-0.019644,-0.028401,-20.874451,-0.387677,-1.097109
598,-0.555601,-1.030516,-0.306095,-0.985393,-0.007597,-0.072572,-22.007385,1.815459,-1.223024
599,-0.562503,-1.020941,-0.32964,-0.987801,-0.025266,-0.039644,-24.90283,-0.891188,-1.600768
600,-0.551,-1.028122,-0.311327,-0.974149,-0.028477,-0.070965,-25.532255,1.689544,-1.537737
601,-0.560203,-1.028122,-0.316559,-0.962904,-0.030083,-0.049281,-26.035765,-1.457581,-0.656482
602,-0.555601,-1.023335,-0.319176,-0.969331,-0.033297,-0.029204,-29.812315,1.060119,-1.160141
603,-0.553301,-1.023335,-0.319176,-0.993423,-0.033297,-0.037235,-26.917019,-0.513443,-1.348939
604,-0.553301,-1.023335,-0.319176,-0.977362,-0.029281,-0.005111,-25.532255,1.56363,-1.474854
605,-0.555601,-1.016154,-0.319176,-0.950056,-0.018037,-0.068556,-28.553465,-0.765273,-1.600768
606,-0.551,-1.01376,-0.342721,-0.984588,-0.018839,-0.033219,-29.308807,0.05295,-2.293077
607,-0.555601,-1.004185,-0.347954,-0.976557,0.000434,-0.045266,-32.078335,0.367662,-2.104279
608,-0.555601,-1.016154,-0.340105,-0.980573,-0.030083,-0.032417,-35.854885,0.430694,-1.978364
609,-0.553301,-1.018547,-0.345338,-0.972542,-0.024461,-0.045266,-36.924938,-0.387677,-1.726534
610,-0.553301,-1.018547,-0.345338,-0.972542,-0.029281,-0.046068,-37.239651,2.381852,-2.041247
611,-0.551,-1.016154,-0.35057,-0.943631,-0.035705,-0.028401,-37.365566,-0.45056,-1.411822
612,-0.555601,-1.008972,-0.353186,-0.978968,-0.02125,-0.039644,-38.876244,0.241748,-1.663651
613,-0.555601,-1.004185,-0.361035,-0.978968,-0.028477,-0.019566,-39.568554,2.318969,-1.285907
614,-0.553301,-1.008972,-0.40551,-0.950858,-0.018037,-0.030006,-31.511791,-1.96124,-1.097109
615,-0.551,-1.011366,-0.379348,-0.962102,-0.024461,-0.033219,-29.308807,0.934205,-1.411822
616,-0.555601,-1.004185,-0.363651,-0.970133,-0.036508,-0.050085,-32.14122,-0.135848,-1.726534
617,-0.555601,-1.004185,-0.363651,-0.978164,-0.024461,-0.032417,-39.7575,2.570799,-1.789566
618,-0.5487,-1.004185,-0.379348,-0.965315,-0.013217,0.018982,-39.883266,-0.639358,-1.411822
619,-0.555601,-1.01376,-0.371499,-0.987801,-0.022855,-0.015551,-34.218437,1.752427,-1.537737
620,-0.544098,-1.01376,-0.381964,-0.963709,-0.038114,-0.053297,-29.938229,4.018446,-1.285907
621,-0.5487,-1.001791,-0.38458,-0.992619,-0.02125,-0.032417,-33.400215,-3.723601,-2.104279
622,-0.546399,-1.006579,-0.381964,-0.991817,-0.038917,-0.034022,-32.770645,4.962584,-1.411822
623,-0.546399,-1.006579,-0.381964,-0.96692,-0.035705,-0.040448,-38.058022,0.304779,-2.418991
624,-0.555601,-1.001791,-0.38458,-0.958087,-0.044539,-0.036432,-34.092525,1.752427,-1.600768
625,-0.5487,-1.004185,-0.389813,-0.957284,-0.027674,-0.097469,-38.309704,2.06714,-3.1113
626,-0.557902,-1.004185,-0.395045,-0.962102,-0.018839,-0.062132,-45.044731,-1.646528,-2.167162
627,-0.564804,-1.004185,-0.400277,-1.003061,-0.070238,0.028619,-39.820381,-2.46475,-1.034226
628,-0.551,-0.999397,-0.400277,-0.939616,-0.036508,-0.083816,-43.848763,6.787977,-1.034226
629,-0.555601,-0.997003,-0.40551,-0.975755,-0.02125,-0.072572,-54.612019,-0.45056,-2.544906
630,-0.555601,-0.997003,-0.40551,-0.976557,-0.025266,-0.024386,-60.151081,-8.633235,-2.985384
631,-0.541798,-0.99461,-0.418591,-1.00547,-0.068633,0.024604,-59.773487,4.710755,-2.481874
632,-0.546399,-0.989822,-0.431672,-0.955678,0.005254,-0.027597,-61.347046,2.82248,-2.985384
633,-0.541798,-0.973066,-0.402894,-0.9613,-0.070238,-0.034826,-65.753021,-4.793653,-2.041247
634,-0.546399,-0.963491,-0.408126,-0.991015,-0.010808,-0.037235,-64.368256,0.682375,-2.670672
635,-0.541798,-0.982641,-0.434288,-0.938812,-0.036508,-0.040448,-62.479984,0.934205,-1.726534
636,-0.541798,-0.982641,-0.434288,-0.974149,0.000434,-0.062132,-65.123596,-2.275953,-2.796587
637,-0.541798,-0.982641,-0.413358,-0.947647,-0.046145,-0.044463,-66.94899,4.836669,-1.915481
638,-0.534896,-0.987428,-0.434288,-0.988604,-0.046949,-0.003504,-72.047424,-5.297163,-3.426012
639,-0.537196,-0.97546,-0.455218,-0.986999,0.0173,0.039863,-74.124496,1.56363,-2.670672
640,-0.539497,-0.963491,-0.436904,-1.038398,-0.040523,-0.161716,-42.904625,20.824274,0.476453
641,-0.541798,-0.956309,-0.449985,-0.948449,-0.050161,-0.055705,-48.947193,-2.212921,0.602368
642,-0.541798,-0.956309,-0.449985,-0.9613,-0.054176,-0.050085,-53.793797,-7.374385,-1.852449
643,-0.539497,-0.956309,-0.468299,-0.953269,-0.033297,0.00292,-59.332855,-11.843391,-2.293077
644,-0.530295,-0.956309,-0.470915,-0.978164,-0.015628,-0.011535,-61.284168,12.13809,-1.915481
645,-0.527994,-0.956309,-0.489228,-0.978164,-0.036508,-0.049281,-57.633381,8.10971,-3.048416
646,-0.532595,-0.949128,-0.504925,-0.980573,-0.057389,-0.05651,-52.786777,-5.23428,-1.915481
647,-0.534896,-0.944341,-0.489228,-0.975755,-0.036508,0.022997,-45.862953,-10.962137,-2.355959
648,-0.537196,-0.932372,-0.491844,-1.013501,-0.024461,0.013362,-46.681175,11.005155,-2.670672
649,-0.537196,-0.932372,-0.491844,-0.974953,-0.034901,-0.035628,-39.883266,6.09552,-1.978364
650,-0.530295,-0.939553,-0.497077,-0.988604,-0.02687,-0.054903,-37.617393,-6.870726,-1.789566
651,-0.523393,-0.939553,-0.497077,-0.937205,-0.026068,0.046288,-36.295513,0.619492,-1.915481
652,-0.534896,-0.946734,-0.481379,-0.976557,-0.019644,-0.039644,-36.232628,6.158552,-1.474854
653,-0.527994,-0.939553,-0.510158,-0.962904,-0.018037,-0.040448,-33.022472,-1.457581,-1.726534
654,-0.532595,-0.932372,-0.51539,-0.942827,0.010071,-0.023582,-35.099545,-0.891188,-2.104279
655,-0.532595,-0.932372,-0.51539,-0.96692,-0.034901,-0.035628,-34.281322,-0.45056,-1.285907
656,-0.532595,-0.934766,-0.510158,-0.982179,-0.022052,-0.061328,-30.064144,3.137192,-1.600768
657,-0.532595,-0.920403,-0.510158,-0.962904,-0.019644,-0.037235,-29.120007,-3.849515,-1.348939
658,-0.534896,-0.927584,-0.523239,-0.978968,-0.032492,-0.05169,-28.049955,3.32599,-1.034226
659,-0.532595,-0.925191,-0.51539,-0.969331,-0.012415,-0.069358,-31.574823,-0.513443,-1.285907
660,-0.516491,-0.915615,-0.507541,-0.940418,-0.033297,-0.045266,-40.135094,-1.96124,-2.104279
661,-0.534896,-0.910828,-0.523239,-0.974953,-0.033297,-0.069358,-42.904625,3.137192,-1.034226
662,-0.534896,-0.910828,-0.523239,-0.982984,-0.048554,-0.04125,-44.100594,3.074309,-1.978364
663,-0.530295,-0.908434,-0.544168,-0.954071,-0.022855,-0.008322,-41.519859,-3.157058,-1.537737
664,-0.527994,-0.903647,-0.554633,-0.976557,-0.024461,-0.022779,-38.183788,2.318969,-1.600768
665,-0.532595,-0.901253,-0.538936,-0.970937,-0.007597,-0.069358,-37.743309,4.836669,-1.537737
666,-0.527994,-0.896465,-0.533703,-0.996637,-0.018037,-0.032417,-41.897453,-6.052503,-0.719514
667,-0.521092,-0.901253,-0.557249,-1.000652,-0.064618,0.003724,-42.463997,3.57782,-1.285907
668,-0.521092,-0.901253,-0.557249,-0.969331,-0.039721,-0.045266,-39.568554,2.570799,-2.544906
669,-0.518791,-0.889284,-0.546784,-0.948449,-0.060601,-0.037235,-35.729118,-1.079985,-2.104279
670,-0.521092,-0.891678,-0.565098,-0.980573,-0.063011,-0.072572,-39.190956,-2.024123,-2.733704
671,-0.523393,-0.88689,-0.554633,-0.950056,-0.061405,-0.044463,-40.009178,-0.765273,-2.418991
672,-0.523393,-0.88689,-0.567714,-0.952465,-0.051767,-0.009126,-41.393944,-1.2059,-2.670672
673,-0.523393,-0.889284,-0.580795,-0.96692,-0.03169,-0.040448,-42.589912,2.381852,-2.922502
674,-0.523393,-0.889284,-0.580795,-0.988604,-0.014021,-0.054101,-41.393944,-0.072965,-1.663651
675,-0.527994,-0.884496,-0.557249,-1.019925,-0.005991,-0.010733,-41.079231,0.80829,-1.474854
676,-0.525693,-0.86774,-0.578179,-0.96692,-0.02687,-0.047675,-36.295513,1.941225,-1.600768
677,-0.532595,-0.870134,-0.586027,-0.966118,-0.011613,-0.04125,-37.491478,-0.198731,-1.537737
678,-0.525693,-0.879709,-0.578179,-0.968526,-0.02125,-0.040448,-37.994991,2.948395,-1.726534
679,-0.527994,-0.872528,-0.580795,-0.974953,0.001238,-0.034022,-32.770645,0.05295,-1.223024
680,-0.534896,-0.877315,-0.601725,-1.025547,-0.042934,-0.03081,-27.546444,1.941225,-1.097109
681,-0.534896,-0.877315,-0.601725,-0.991817,-0.034099,-0.019566,-25.532255,-1.268783,-0.593599
682,-0.525693,-0.865346,-0.601725,-0.964511,-0.032492,-0.050085,-25.343307,0.682375,-1.223024
683,-0.523393,-0.855771,-0.596492,-0.948449,-0.024461,-0.031613,-23.89566,0.178865,-1.223024
684,-0.523393,-0.862953,-0.583411,-0.954071,-0.040523,-0.019566,-21.818588,0.115982,-1.726534
685,-0.521092,-0.850984,-0.599108,-0.976557,-0.030083,-0.048479,-19.426653,0.871322,-1.726534
686,-0.534896,-0.860559,-0.583411,-0.99021,-0.019644,-0.059721,-24.776915,-0.387677,-1.097109
687,-0.534896,-0.860559,-0.583411,-0.983786,-0.051767,-0.042053,-32.267132,-0.891188,-1.600768
688,-0.527994,-0.850984,-0.586027,-0.982984,-0.019644,-0.01796,-29.623518,0.367662,-1.600768
689,-0.527994,-0.850984,-0.601725,-0.974953,-0.004384,-0.03081,-29.623518,3.137192,-0.908311
690,-0.518791,-0.84859,-0.596492,-0.953269,-0.019644,-0.059721,-31.071167,0.745407,-1.034226
691,-0.525693,-0.831834,-0.580795,-0.979771,-0.002777,-0.029204,-34.344353,0.241748,-1.097109
692,-0.523393,-0.831834,-0.609573,-0.959693,-0.010808,-0.038037,-33.840694,1.815459,-1.348939
693,-0.523393,-0.831834,-0.609573,-0.980573,-0.019644,-0.030006,-35.351376,-1.2059,-1.600768
694,-0.521092,-0.839015,-0.622654,-0.97174,-0.036508,-0.026795,-37.743309,2.06714,-1.726534
695,-0.518791,-0.824652,-0.620038,-0.99021,-0.041327,0.010149,-36.232628,0.115982,-0.971194
696,-0.521092,-0.822258,-0.614806,-0.944434,-0.023659,-0.084618,-32.833675,3.57782,-1.285907
697,-0.51419,-0.807896,-0.638351,-1.003061,-0.034099,-0.057312,-31.952421,-1.583496,-1.600768
698,-0.516491,-0.815077,-0.612189,-0.966118,-0.046145,0.005331,-37.869076,3.514937,-0.971194
699,-0.516491,-0.812684,-0.620038,-0.96692,-0.011613,-0.042053,-36.736141,2.318969,-2.167162
700,-0.516491,-0.812684,-0.620038,-0.96692,-0.047752,-0.022779,-38.750328,-0.072965,-1.726534
701,-0.507288,-0.812684,-0.633119,-0.984588,-0.034901,-0.042053,-40.953316,-0.009933,-1.789566
702,-0.509589,-0.81029,-0.617422,-0.945238,-0.035705,-0.009126,-40.386925,-0.765273,-1.915481
703,-0.525693,-0.798321,-0.640967,-0.986195,-0.018839,-0.039644,-40.575722,1.123002,-1.663651
704,-0.521092,-0.795927,-0.638351,-0.980573,-0.025266,-0.00752,-43.156456,-1.520613,-2.355959
705,-0.516491,-0.776777,-0.62527,-0.999848,-0.011613,-0.013944,-45.359444,3.829649,-1.978364
706,-0.516491,-0.776777,-0.62527,-0.954071,-0.012415,-0.017157,-45.359444,1.248917,-1.789566
707,-0.518791,-0.786352,-0.630503,-0.938009,-0.018839,-0.030006,-41.834572,-1.142868,-0.845429
708,-0.521092,-0.786352,-0.62527,-0.992619,-0.018037,-0.017157,-35.099545,2.130172,-1.789566
709,-0.523393,-0.776777,-0.622654,-0.958889,-0.017235,-0.042053,-34.470119,-1.142868,-1.789566
710,-0.511889,-0.779171,-0.614806,-0.991015,-0.050161,-0.025991,-34.470119,0.556609,-1.411822
711,-0.518791,-0.769596,-0.640967,-0.999848,-0.023659,-0.040448,-35.28849,1.374832,-2.104279
712,-0.516491,-0.764808,-0.667129,-0.99021,-0.015628,-0.019566,-31.134199,0.493577,-1.160141
713,-0.516491,-0.764808,-0.667129,-0.980573,-0.024461,-0.038841,-29.056978,1.186034,-2.104279
714,-0.502687,-0.764808,-0.640967,-0.954873,-0.041327,-0.034022,-30.315975,-0.639358,-2.104279
715,-0.509589,-0.776777,-0.677594,-0.952465,-0.038917,-0.054903,-32.770645,0.556609,-1.852449
716,-0.502687,-0.769596,-0.672362,-0.987801,-0.039721,-0.019566,-36.106712,1.186034,-2.104279
717,-0.507288,-0.764808,-0.68021,-0.97174,-0.053374,-0.030006,-37.365566,0.178865,-2.859619
718,-0.516491,-0.760021,-0.703756,-0.980573,-0.04213,-0.022779,-37.113735,-0.765273,-2.355959
719,-0.516491,-0.760021,-0.703756,-0.965315,-0.043736,-0.026795,-35.28849,1.3118,-1.915481
720,-0.511889,-0.755233,-0.674978,-0.964511,-0.037312,-0.026795,-34.847862,-0.135848,-1.852449
721,-0.518791,-0.752839,-0.685443,-0.94604,-0.027674,-0.019566,-35.729118,0.80829,-2.230194
722,-0.507288,-0.755233,-0.695907,-0.999045,-0.024461,-0.015551,-39.820381,0.304779,-2.041247
723,-0.511889,-0.745658,-0.688059,-0.978164,-0.036508,-0.035628,-40.890434,1.123002,-1.600768
724,-0.509589,-0.745658,-0.693291,-0.976557,-0.034901,-0.036432,-44.604103,-1.520613,-2.104279
725,-0.509589,-0.745658,-0.693291,-0.985393,-0.043736,-0.009929,-46.240547,0.934205,-1.915481
726,-0.502687,-0.736083,-0.685443,-0.985393,-0.026068,-0.060525,-44.352272,-0.135848,-1.537737
727,-0.523393,-0.731295,-0.688059,-0.979771,-0.043736,-0.029204,-43.974678,0.304779,-1.915481
728,-0.509589,-0.731295,-0.698524,-0.986999,-0.014021,-0.001095,-38.813213,1.689544,-1.852449
729,-0.509589,-0.716933,-0.693291,-0.981377,-0.012415,-0.013142,-34.721951,-0.009933,-1.537737
730,-0.51419,-0.709751,-0.690675,-0.986195,-0.066223,0.010951,-34.281322,0.241748,-1.789566
731,-0.51419,-0.709751,-0.672362,-0.964511,-0.029281,-0.049281,-34.092525,0.871322,-1.726534
732,-0.51419,-0.709751,-0.672362,-0.950858,-0.036508,-0.039644,-33.777813,-0.387677,-1.285907
733,-0.518791,-0.712145,-0.690675,-0.95648,-0.002777,-0.047675,-27.357498,0.619492,-0.782397
734,-0.518791,-0.709751,-0.695907,-0.978968,-0.023659,-0.035628,-26.979902,0.05295,-1.789566
735,-0.502687,-0.697783,-0.70114,-0.973346,-0.04213,-0.042857,-24.713882,1.248917,-1.223024
736,-0.51419,-0.700176,-0.706372,-0.985393,-0.029281,-0.031613,-25.721052,-0.324646,-1.160141
737,-0.507288,-0.709751,-0.706372,-0.973346,-0.023659,-0.025991,-23.518064,0.241748,-1.474854
738,-0.507288,-0.709751,-0.706372,-0.977362,-0.038917,-0.038841,-22.888639,-0.639358,-1.663651
739,-0.511889,-0.704964,-0.682826,-0.986195,-0.023659,-0.034826,-22.573927,0.682375,-1.474854
740,-0.507288,-0.70257,-0.664513,-0.970937,-0.029281,-0.040448,-23.518064,-0.954071,-1.600768
741,-0.504988,-0.697783,-0.682826,-0.986999,-0.035705,-0.018764,-24.084457,0.430694,-1.034226
742,-0.509589,-0.692995,-0.698524,-0.979771,-0.018037,-0.030006,-25.658169,0.556609,-1.789566
743,-0.502687,-0.68342,-0.70114,-0.953269,-0.032492,-0.042857,-29.056978,-0.70239,-1.097109
744,-0.511889,-0.685814,-0.698524,-0.977362,-0.018839,-0.050888,-29.120007,0.871322,-1.348939
745,-0.511889,-0.685814,-0.698524,-0.973346,-0.022855,-0.009126,-29.182888,-0.324646,-1.600768
746,-0.509589,-0.681026,-0.716837,-0.932387,-0.044539,-0.027597,-30.88237,-0.198731,-1.600768
747,-0.521092,-0.671451,-0.727302,-0.975755,-0.039721,-0.030006,-29.056978,-0.198731,-2.796587
748,-0.502687,-0.669057,-0.706372,-0.962102,-0.022052,-0.030006,-30.252943,0.115982,-1.789566
749,-0.504988,-0.673845,-0.706372,-0.991817,-0.014824,0.002118,-33.777813,1.186034,-1.789566
750,-0.509589,-0.66427,-0.722069,-0.987801,-0.041327,-0.008322,-32.70776,0.241748,-1.915481
751,-0.509589,-0.66427,-0.722069,-0.99021,-0.034901,-0.004307,-32.770645,-0.828156,-1.663651
752,-0.511889,-0.669057,-0.714221,-0.984588,-0.044539,-0.021173,-34.218437,-0.70239,-1.915481
753,-0.51419,-0.659482,-0.708988,-0.983786,-0.024461,-0.045266,-36.358543,-0.324646,-1.600768
754,-0.502687,-0.661876,-0.714221,-0.997439,-0.010808,-0.049281,-38.750328,-0.009933,-1.852449
755,-0.507288,-0.654695,-0.711605,-0.941221,-0.034901,-0.032417,-40.638603,-0.198731,-1.600768
756,-0.51419,-0.654695,-0.719453,-0.987801,-0.011613,-0.008322,-41.645775,0.997087,-1.978364
757,-0.51419,-0.654695,-0.719453,-0.977362,-0.057389,-0.012338,-39.065041,-2.590665,-2.859619
758,-0.502687,-0.654695,-0.742999,-1.008683,-0.069436,-0.064541,-38.058022,-0.576475,-2.607789
759,-0.509589,-0.647514,-0.732534,-0.942025,-0.038114,-0.029204,-38.750328,-0.639358,-1.852449
760,-0.504988,-0.652301,-0.753464,-0.958889,-0.04213,-0.008322,-40.072212,-2.087155,-3.677841
761,-0.504988,-0.630757,-0.708988,-0.981377,0.020513,-0.069358,-39.631584,5.025467,-1.789566
762,-0.509589,-0.630757,-0.722069,-1.010288,-0.04213,-0.011535,-36.862053,-7.185439,-1.034226
763,-0.502687,-0.621182,-0.711605,-0.991817,-0.061405,0.010149,-34.344353,4.899702,-1.726534
764,-0.502687,-0.621182,-0.711605,-0.97174,-0.061405,-0.031613,-33.4631,-1.017102,-1.537737
765,-0.509589,-0.614001,-0.719453,-0.94604,-0.002777,-0.020369,-32.393047,0.430694,-1.097109
766,-0.498086,-0.618788,-0.719453,-0.953269,-0.026068,-0.029204,-36.295513,0.367662,-1.348939
767,-0.491184,-0.602032,-0.703756,-0.986999,-0.023659,-0.034826,-38.435616,-0.639358,-1.852449
768,-0.498086,-0.609213,-0.729918,-0.982984,-0.034901,-0.016353,-35.917915,0.241748,-1.600768
769,-0.500386,-0.597244,-0.724686,-0.968526,-0.014021,-0.01796,-36.924938,0.430694,-2.167162
770,-0.500386,-0.597244,-0.724686,-0.958889,-0.040523,-0.078996,-38.498501,0.430694,-1.411822
771,-0.495785,-0.587669,-0.732534,-0.962102,-0.034099,-0.002702,-38.561531,0.682375,-1.160141
772,-0.495785,-0.587669,-0.729918,-0.968526,-0.024461,-0.021173,-36.48431,1.123002,-2.230194
773,-0.493484,-0.580488,-0.719453,-0.964511,-0.038917,-0.022779,-32.70776,0.178865,-1.348939
774,-0.507288,-0.575701,-0.745615,-0.975755,-0.038114,-0.020369,-30.001261,-0.009933,-1.537737
775,-0.500386,-0.585276,-0.745615,-0.958889,-0.032492,-0.058116,-29.812315,-0.009933,-1.411822
776,-0.500386,-0.585276,-0.745615,-0.960495,-0.034099,-0.018764,-28.994091,-0.387677,-2.104279
777,-0.500386,-0.566125,-0.706372,-0.968526,-0.02125,-0.046872,-32.14122,1.752427,-1.978364
778,-0.493484,-0.568519,-0.737767,-0.963709,-0.015628,-0.044463,-36.48431,-0.261763,-1.852449
779,-0.498086,-0.561338,-0.714221,-0.9613,-0.036508,-0.010733,-38.435616,0.682375,-2.104279
780,-0.493484,-0.561338,-0.748231,-0.965315,-0.044539,0.017377,-39.127926,0.745407,-1.223024
781,-0.507288,-0.561338,-0.740383,-0.974149,-0.018037,-0.028401,-38.183788,1.689544,-1.726534
782,-0.495785,-0.554157,-0.750848,-0.974149,-0.051767,-0.002702,-38.624416,-0.576475,-1.663651
783,-0.495785,-0.554157,-0.750848,-0.998241,-0.030886,-0.032417,-39.002159,2.06714,-1.915481
784,-0.500386,-0.542188,-0.758696,-0.998241,-0.01643,-0.016353,-38.939129,0.682375,-2.041247
785,-0.502687,-0.5374,-0.722069,-0.962904,-0.022855,-0.025991,-37.428596,1.752427,-1.160141
786,-0.491184,-0.535006,-0.737767,-0.957284,-0.002777,-0.058919,-37.365566,0.934205,-1.160141
787,-0.500386,-0.530219,-0.724686,-0.981377,-0.014824,-0.022779,-39.568554,0.493577,-1.852449
788,-0.495785,-0.532613,-0.742999,-0.974953,-0.023659,-0.032417,-40.701637,0.493577,-0.719514
789,-0.495785,-0.532613,-0.742999,-0.986999,-0.007597,-0.022779,-41.456978,-0.387677,-1.537737
790,-0.500386,-0.523038,-0.737767,-0.979771,-0.060601,-0.009929,-48.947193,-0.324646,-1.726534
791,-0.498086,-0.523038,-0.758696,-0.97174,-0.030083,-0.043659,-44.918816,1.56363,-2.796587
792,-0.502687,-0.523038,-0.740383,-0.952465,-0.033297,-0.002702,-44.918816,0.493577,-2.355959
793,-0.495785,-0.515856,-0.748231,-0.99021,-0.047752,-0.021173,-42.967506,-1.142868,-2.167162
794,-0.504988,-0.511069,-0.737767,-0.994226,-0.038917,-0.038037,-38.120903,0.997087,-1.915481
795,-0.488883,-0.508675,-0.737767,-0.95648,-0.020446,-0.037235,-32.581844,0.178865,-1.537737
796,-0.488883,-0.508675,-0.737767,-0.970133,-0.030083,-0.035628,-33.651897,0.682375,-1.663651
797,-0.486582,-0.496706,-0.745615,-0.970937,-0.020446,-0.045266,-38.120903,0.178865,-2.041247
798,-0.493484,-0.494313,-0.745615,-0.972542,-0.028477,-0.024386,-43.53405,2.318969,-1.600768
799,-0.493484,-0.484737,-0.73515,-0.940418,-0.017235,0.014966,-44.415306,0.178865,-1.663651
800,-0.498086,-0.482344,-0.75608,-1.011894,-0.055783,-0.031613,-43.596931,0.115982,-2.230194
801,-0.495785,-0.472769,-0.732534,-0.978968,-0.047752,-0.037235,-45.170643,0.934205,-2.167162
802,-0.495785,-0.472769,-0.732534,-0.920341,-0.030886,-0.025188,-39.946297,-0.072965,-1.285907
803,-0.498086,-0.467981,-0.740383,-0.96692,-0.011613,-0.011535,-38.687447,1.689544,-2.985384
804,-0.486582,-0.472769,-0.750848,-0.982984,-0.041327,-0.072572,-39.568554,-0.576475,-2.167162
805,-0.498086,-0.4608,-0.727302,-0.992619,-0.058996,-0.05169,-43.156456,1.941225,-1.726534
806,-0.488883,-0.456012,-0.758696,-0.929978,-0.044539,0.00292,-38.120903,-0.954071,-2.230194
807,-0.493484,-0.451225,-0.758696,-0.974953,-0.060601,-0.022779,-38.309704,4.144361,-2.481874
808,-0.493484,-0.451225,-0.758696,-0.954071,-0.049358,-0.05169,-36.736141,-3.723601,-1.474854
809,-0.491184,-0.451225,-0.737767,-0.979771,-0.043736,-0.025188,-41.897453,5.529127,-2.167162
810,-0.488883,-0.434468,-0.750848,-0.955678,-0.025266,-0.042857,-45.107613,-2.779463,-1.600768
811,-0.495785,-0.436862,-0.742999,-0.966118,-0.066223,-0.038037,-44.981697,0.304779,-2.041247
812,-0.495785,-0.434468,-0.771777,-1.003061,-0.035705,-0.025188,-40.386925,1.123002,-2.733704
813,-0.491184,-0.427287,-0.766545,-0.962102,-0.01643,-0.032417,-29.812315,0.556609,-1.537737
814,-0.502687,-0.427287,-0.745615,-0.977362,-0.022855,-0.050085,-23.014406,0.745407,-2.041247
815,-0.502687,-0.427287,-0.745615,-0.974149,-0.018839,-0.021975,-24.336288,-0.513443,-1.160141
816,-0.504988,-0.420106,-0.753464,-0.97174,-0.041327,-0.059721,-28.490582,1.500747,-2.544906
817,-0.500386,-0.415318,-0.750848,-0.954071,-0.05257,-0.006717,-32.078335,-0.513443,-1.474854
818,-0.495785,-0.400956,-0.724686,-0.999848,-0.035705,-0.057312,-33.400215,2.193055,-1.789566
819,-0.488883,-0.410531,-0.750848,-0.966118,-0.02687,-0.030006,-40.323891,-1.079985,-0.971194
820,-0.495785,-0.400956,-0.758696,-0.97174,-0.034099,-0.035628,-42.526878,2.444884,-2.355959
821,-0.495785,-0.400956,-0.758696,-0.963709,-0.063011,-0.040448,-43.596931,-0.387677,-2.041247
822,-0.486582,-0.396168,-0.761312,-0.989408,-0.030886,-0.034826,-42.2752,1.941225,-1.852449
823,-0.504988,-0.39138,-0.75608,-0.968526,-0.019644,-0.015551,-36.106712,-0.45056,-1.285907
824,-0.495785,-0.381806,-0.771777,-0.970133,-0.025266,-0.01796,-33.022472,2.193055,-1.223024
825,-0.502687,-0.386593,-0.763929,-0.967724,-0.034901,-0.022779,-35.603203,-1.079985,-2.922502
826,-0.504988,-0.37223,-0.769161,-0.978164,-0.038917,-0.035628,-41.708656,1.3118,-1.726534
827,-0.498086,-0.377018,-0.766545,-0.989408,-0.042934,-0.000291,-40.638603,0.430694,-2.041247
828,-0.498086,-0.377018,-0.766545,-0.962102,-0.030886,-0.025991,-34.281322,1.752427,-2.104279
829,-0.500386,-0.357868,-0.732534,-0.969331,-0.041327,-0.034826,-31.322994,-0.70239,-2.041247
830,-0.493484,-0.360262,-0.750848,-0.978164,-0.035705,-0.00752,-29.623518,1.3118,-2.481874
831,-0.486582,-0.355474,-0.771777,-0.96692,-0.046145,-0.035628,-32.959587,-0.009933,-0.908311
832,-0.488883,-0.360262,-0.745615,-0.977362,-0.02687,-0.025991,-35.351376,2.130172,-1.348939
833,-0.491184,-0.345899,-0.766545,-0.973346,-0.038114,-0.042857,-33.903725,-0.072965,-1.034226
834,-0.491184,-0.345899,-0.766545,-0.995832,-0.015628,-0.021975,-28.742262,0.556609,-1.978364
835,-0.491184,-0.331536,-0.737767,-0.974149,-0.038917,-0.030006,-32.770645,-0.009933,-0.908311
836,-0.491184,-0.336324,-0.748231,-0.981377,-0.019644,-0.027597,-33.148388,-0.072965,-1.978364
837,-0.498086,-0.331536,-0.748231,-0.970133,-0.030886,-0.050085,-34.470119,-0.261763,-1.348939
838,-0.498086,-0.324355,-0.75608,-0.957284,-0.02687,-0.058116,-30.945402,0.745407,-1.600768
839,-0.504988,-0.326749,-0.742999,-0.963709,-0.037312,-0.044463,-24.588118,-0.072965,-1.034226
840,-0.504988,-0.326749,-0.742999,-0.987801,-0.051767,-0.031613,-24.39917,-0.261763,-1.348939
841,-0.493484,-0.321961,-0.750848,-0.974149,-0.037312,-0.053297,-31.88954,-0.009933,-1.537737
842,-0.498086,-0.319568,-0.750848,-0.955678,-0.046145,-0.030006,-35.917915,-0.009933,-1.852449
843,-0.502687,-0.305205,-0.748231,-1.003061,0.011678,-0.021975,-42.086403,0.871322,-2.041247
844,-0.493484,-0.305205,-0.748231,-0.991015,-0.002777,-0.050888,-47.877144,1.3118,-1.600768
845,-0.491184,-0.300417,-0.75608,-1.006272,-0.034099,-0.021173,-52.283119,0.934205,-1.726534
846,-0.504988,-0.293236,-0.729918,-0.99503,-0.025266,0.022997,-51.213215,0.115982,-1.789566
847,-0.504988,-0.293236,-0.729918,-0.991817,-0.005186,-0.022779,-53.10149,1.437715,-2.607789
848,-0.504988,-0.29563,-0.737767,-1.003863,-0.02687,-0.027597,-53.982594,-0.828156,-2.230194
849,-0.502687,-0.288449,-0.745615,-0.964511,-0.058192,-0.030006,-49.639503,1.815459,-2.104279
850,-0.491184,-0.286055,-0.719453,-0.986999,-0.041327,-0.039644,-46.744205,-0.639358,-2.167162
851,-0.491184,-0.286055,-0.732534,-0.99503,-0.030886,-0.013142,-44.289391,1.626513,-1.034226
852,-0.502687,-0.283661,-0.737767,-0.962102,-0.022052,-0.036432,-34.218437,0.682375,-1.726534
853,-0.502687,-0.283661,-0.737767,-0.987801,-0.035705,-0.027597,-32.455933,-0.387677,-1.600768
854,-0.495785,-0.274086,-0.745615,-0.966118,-0.041327,-0.058116,-34.092525,1.689544,-1.411822
855,-0.493484,-0.266905,-0.732534,-0.962904,-0.025266,-0.039644,-33.525982,0.556609,-1.285907
856,-0.502687,-0.259723,-0.737767,-0.957284,-0.039721,-0.021173,-34.281322,0.241748,-1.852449
857,-0.491184,-0.25733,-0.729918,-0.958087,-0.034099,-0.05651,-33.840694,1.248917,-1.915481
858,-0.493484,-0.254936,-0.732534,-0.96692,-0.034099,-0.034022,-30.693569,-0.009933,-1.034226
859,-0.493484,-0.254936,-0.732534,-0.954071,-0.034099,-0.009929,-25.972881,0.682375,-0.782397
860,-0.493484,-0.250148,-0.719453,-0.986999,-0.033297,-0.05169,-27.735243,-0.828156,-1.663651
861,-0.493484,-0.240573,-0.729918,-0.978968,-0.050965,-0.033219,-24.525085,2.633682,-2.104279
862,-0.498086,-0.223817,-0.737767,-0.957284,-0.02687,-0.018764,-17.034866,0.934205,-1.034226
863,-0.509589,-0.245361,-0.742999,-1.002257,-0.046949,-0.026795,-17.034866,-1.646528,-2.041247
864,-0.493484,-0.235786,-0.745615,-0.982984,-0.05498,-0.019566,-16.720154,1.815459,-1.726534
865,-0.509589,-0.233392,-0.719453,-0.958889,-0.036508,-0.014748,-15.146592,-1.2059,-0.530716
866,-0.509589,-0.233392,-0.719453,-0.9613,-0.028477,-0.026795,-14.957644,0.80829,-0.593599
867,-0.51419,-0.238179,-0.722069,-0.99021,-0.03169,-0.03081,-17.979004,-0.072965,-1.474854
868,-0.500386,-0.240573,-0.737767,-1.006272,-0.022855,-0.030006,-23.266235,0.997087,-1.097109
869,-0.504988,-0.226211,-0.722069,-0.947647,-0.044539,-0.013142,-25.595139,0.556609,-0.404801
870,-0.511889,-0.219029,-0.706372,-0.976557,-0.005186,-0.021975,-19.804398,1.626513,-0.971194
871,-0.516491,-0.219029,-0.711605,-0.955678,-0.02125,-0.020369,-22.888639,-0.135848,-0.845429
872,-0.516491,-0.219029,-0.711605,-0.99503,-0.03169,-0.013944,-25.343307,-0.198731,-2.418991
873,-0.51419,-0.214242,-0.716837,-0.975755,-0.040523,-0.026795,-27.609327,0.241748,-2.293077
874,-0.504988,-0.214242,-0.727302,-0.976557,-0.028477,-0.035628,-32.518963,-0.828156,-1.411822
875,-0.493484,-0.204667,-0.716837,-0.978164,-0.033297,-0.005913,-31.511791,-0.135848,-1.789566
876,-0.498086,-0.207061,-0.703756,-0.970937,-0.038917,-0.039644,-28.67938,-0.198731,-1.852449
877,-0.511889,-0.209454,-0.722069,-0.960495,-0.034099,-0.038037,-29.308807,0.682375,-1.852449
878,-0.502687,-0.209454,-0.693291,-0.962904,-0.039721,-0.002702,-30.064144,-0.072965,-1.852449
879,-0.502687,-0.209454,-0.693291,-0.975755,-0.030083,-0.033219,-29.812315,0.80829,-2.230194
880,-0.500386,-0.199879,-0.682826,-0.985393,-0.051767,-0.006717,-31.385878,2.130172,-2.167162
881,-0.507288,-0.195092,-0.708988,-0.991817,-0.025266,-0.025188,-32.770645,1.248917,-2.104279
882,-0.500386,-0.199879,-0.706372,-0.980573,-0.034901,-0.042857,-33.4631,-0.576475,-1.663651
883,-0.507288,-0.197485,-0.688059,-0.976557,-0.032492,-0.025991,-32.01545,1.878342,-1.600768
884,-0.500386,-0.195092,-0.714221,-0.97174,-0.035705,-0.049281,-30.378859,0.493577,-1.348939
885,-0.500386,-0.195092,-0.714221,-0.958889,-0.033297,-0.014748,-30.378859,-0.135848,-2.041247
886,-0.516491,-0.183123,-0.698524,-0.955678,-0.02125,-0.010733,-33.022472,1.689544,-1.726534
887,-0.521092,-0.173548,-0.688059,-0.967724,-0.045343,-0.069358,-37.050854,-1.520613,-2.167162
888,-0.507288,-0.171154,-0.690675,-0.982179,-0.023659,-0.022779,-39.631584,1.186034,-1.915481
889,-0.511889,-0.171154,-0.677594,-0.934796,-0.040523,-0.021975,-38.435616,0.556609,-1.034226
890,-0.516491,-0.156791,-0.698524,-0.99021,-0.051767,-0.022779,-35.854885,-0.324646,-3.1113
891,-0.516491,-0.156791,-0.698524,-0.991015,-0.036508,-0.011535,-36.358543,2.318969,-1.663651
892,-0.516491,-0.156791,-0.706372,-0.962102,-0.02125,-0.032417,-37.113735,0.745407,-1.663651
893,-0.507288,-0.156791,-0.672362,-0.975755,-0.033297,-0.023582,-34.02964,0.178865,-2.041247
894,-0.511889,-0.152004,-0.68021,-0.982984,-0.034099,-0.023582,-37.617393,0.05295,-1.600768
895,-0.521092,-0.142429,-0.669746,-0.99021,-0.029281,-0.013142,-42.526878,1.878342,-2.985384
896,-0.504988,-0.140035,-0.664513,-0.962102,-0.042934,0.001313,-43.974678,-0.198731,-1.789566
897,-0.504988,-0.135247,-0.661897,-0.997439,-0.046145,-0.020369,-38.561531,0.934205,-3.174331
898,-0.504988,-0.135247,-0.661897,-0.977362,-0.036508,-0.018764,-43.345253,0.304779,-1.223024
899,-0.509589,-0.128066,-0.664513,-0.96692,-0.018839,-0.038841,-47.247719,2.06714,-1.978364
900,-0.502687,-0.123279,-0.674978,-0.983786,-0.026068,-0.03081,-44.604103,-0.009933,-2.922502
901,-0.509589,-0.113704,-0.667129,-0.982179,-0.054176,-0.019566,-45.862953,0.619492,-2.670672
902,-0.509589,-0.11131,-0.672362,-0.964511,-0.062207,-0.050888,-43.785881,0.178865,-1.474854
903,-0.521092,-0.123279,-0.654048,-0.954071,-0.058192,-0.048479,-41.77169,0.619492,-1.600768
904,-0.521092,-0.123279,-0.654048,-0.988604,-0.036508,-0.029204,-40.449806,0.178865,-1.852449
905,-0.51419,-0.104128,-0.654048,-1.000652,-0.033297,-0.021173,-39.065041,-0.198731,-1.097109
906,-0.507288,-0.104128,-0.638351,-0.976557,-0.018037,-0.003504,-39.631584,0.745407,-3.048416
907,-0.516491,-0.096947,-0.648816,-0.963709,-0.042934,-0.046872,-41.142117,1.186034,-1.537737
908,-0.523393,-0.096947,-0.648816,-0.939616,-0.05498,0.00292,-47.625313,0.241748,-2.733704
909,-0.523393,-0.087372,-0.659281,-0.975755,-0.038114,-0.037235,-48.56945,0.493577,-1.600768
910,-0.518791,-0.094553,-0.638351,-0.933994,-0.050965,-0.024386,-39.190956,0.682375,-2.230194
911,-0.518791,-0.094553,-0.638351,-0.992619,-0.022855,-0.03081,-29.68655,-0.639358,-1.348939
912,-0.51419,-0.084978,-0.635735,-0.978164,-0.058996,-0.013142,-26.602306,1.123002,-1.285907
913,-0.523393,-0.089766,-0.643584,-0.977362,-0.024461,-0.045266,-28.994091,1.248917,-1.726534
914,-0.511889,-0.080191,-0.630503,-0.994226,-0.055783,-0.002702,-36.295513,-0.324646,-2.293077
915,-0.523393,-0.080191,-0.609573,-0.97174,-0.050965,-0.022779,-40.323891,1.123002,-1.852449
916,-0.51419,-0.082585,-0.638351,-0.988604,-0.049358,-0.029204,-43.471169,0.871322,-1.915481
917,-0.51419,-0.082585,-0.638351,-0.999848,0.006056,-0.019566,-44.604103,0.745407,-1.789566
918,-0.51419,-0.07301,-0.617422,-0.951662,-0.044539,-0.058919,-45.611122,2.004257,-2.230194
919,-0.516491,-0.063434,-0.620038,-0.99021,-0.043736,-0.031613,-47.625313,-1.457581,-1.285907
920,-0.523393,-0.07301,-0.633119,-0.974149,-0.066223,-0.004307,-45.170643,3.57782,-1.663651
921,-0.525693,-0.058647,-0.630503,-0.963709,-0.028477,-0.021975,-37.80619,-0.828156,-2.104279
922,-0.530295,-0.051466,-0.596492,-0.999848,-0.071845,-0.020369,-25.595139,1.689544,-3.237214
923,-0.530295,-0.051466,-0.596492,-0.974953,-0.05257,-0.012338,-24.776915,1.186034,-0.908311
924,-0.525693,-0.046678,-0.604341,-0.970937,-0.045343,-0.027597,-29.812315,-0.261763,-1.285907
925,-0.534896,-0.053859,-0.614806,-0.975755,-0.036508,-0.049281,-38.120903,1.3118,-1.978364
926,-0.532595,-0.051466,-0.596492,-0.962904,-0.018839,-0.039644,-47.499546,0.745407,-1.915481
927,-0.534896,-0.051466,-0.599108,-0.929978,-0.022855,-0.033219,-50.583641,1.56363,-1.474854
928,-0.534896,-0.037103,-0.580795,-0.9613,-0.05257,-0.053297,-49.261906,-1.2059,-2.607789
929,-0.534896,-0.034709,-0.596492,-0.974953,-0.038114,-0.038841,-46.240547,1.437715,-1.915481
930,-0.534896,-0.034709,-0.596492,-0.970133,-0.027674,-0.057312,-44.918816,-1.331815,-2.230194
931,-0.532595,-0.037103,-0.59126,-1.003863,-0.046949,-0.040448,-45.359444,2.193055,-2.733704
932,-0.532595,-0.034709,-0.580795,-0.986999,-0.034099,-0.039644,-45.800068,-1.142868,-1.223024
933,-0.532595,-0.025134,-0.565098,-0.924356,-0.059798,-0.036432,-39.442787,0.745407,-1.915481
934,-0.537196,-0.025134,-0.538936,-0.954071,-0.038917,-0.043659,-35.540173,-0.70239,-1.978364
935,-0.530295,-0.015559,-0.57033,-0.973346,-0.029281,-0.034022,-36.295513,0.241748,-1.474854
936,-0.530295,-0.015559,-0.57033,-0.959693,-0.037312,-0.048479,-37.428596,0.556609,-1.726534
937,-0.534896,-0.015559,-0.554633,-0.988604,-0.02125,-0.014748,-40.890434,-0.828156,-2.544906
938,-0.530295,-0.022741,-0.575562,-0.982179,-0.048554,-0.049281,-41.582741,1.374832,-2.418991
939,-0.537196,-0.013165,-0.59126,-0.958889,-0.055783,-0.014748,-39.7575,-1.70941,-2.355959
940,-0.530295,-0.00359,-0.565098,-0.986999,-0.043736,-0.039644,-41.01635,1.626513,-1.978364
941,-0.534896,-0.00359,-0.541552,-0.944434,-0.056585,-0.008322,-37.302681,-1.394698,-1.537737
942,-0.534896,-0.00359,-0.541552,-0.984588,-0.040523,-0.053297,-32.959587,1.878342,-1.348939
943,-0.527994,-0.008378,-0.541552,-0.941221,-0.059798,-0.003504,-36.48431,-2.024123,-1.097109
944,-0.525693,-0.001197,-0.546784,-0.962904,-0.038917,-0.022779,-38.435616,2.948395,-2.041247
945,-0.530295,-0.008378,-0.549401,-1.021532,-0.011613,-0.021975,-42.086403,-0.639358,-1.726534
946,-0.527994,0.010772,-0.512774,-0.968526,-0.039721,-0.002702,-40.009178,1.815459,-1.411822
947,-0.527994,0.020347,-0.523239,-0.97174,-0.046145,-0.013142,-37.428596,-1.017102,-2.167162
948,-0.537196,0.029922,-0.528471,-0.947647,-0.063814,-0.025188,-36.043831,0.934205,-1.978364
949,-0.537196,0.029922,-0.528471,-0.965315,-0.028477,-0.046068,-35.351376,-0.45056,-2.607789
950,-0.523393,0.020347,-0.510158,-0.95648,-0.050161,-0.040448,-35.099545,0.682375,-1.978364
951,-0.530295,0.027529,-0.476147,-0.970937,-0.058996,-0.036432,-38.750328,0.304779,-2.041247
952,-0.530295,0.037104,-0.523239,-0.965315,-0.050965,-0.024386,-33.400215,0.367662,-1.600768
953,-0.532595,0.03471,-0.502309,-1.001454,-0.02687,-0.04125,-30.001261,0.115982,-2.104279
954,-0.523393,0.03471,-0.497077,-0.991015,-0.035705,-0.050085,-33.148388,0.682375,-1.915481
955,-0.523393,0.03471,-0.497077,-0.982179,-0.046949,-0.016353,-35.036663,0.80829,-1.348939
956,-0.527994,0.039497,-0.497077,-0.974953,-0.049358,-0.00752,-33.022472,0.80829,-0.971194
957,-0.530295,0.03471,-0.465683,-0.983786,-0.029281,-0.027597,-36.54734,0.430694,-2.041247
958,-0.527994,0.044285,-0.468299,-0.959693,-0.049358,-0.001898,-32.14122,0.115982,-1.537737
959,-0.534896,0.046679,-0.470915,-0.983786,-0.036508,-0.025188,-26.66519,-0.198731,-1.411822
960,-0.541798,0.056254,-0.478763,-0.973346,-0.024461,-0.029204,-26.539276,0.556609,-1.097109
961,-0.537196,0.05386,-0.483996,-0.970937,-0.043736,-0.017157,-25.909851,-0.072965,-1.285907
962,-0.537196,0.05386,-0.483996,-0.979771,-0.050161,-0.025991,-24.776915,-0.072965,-1.411822
963,-0.546399,0.058648,-0.476147,-0.978164,-0.050161,-0.011535,-21.503876,0.80829,-1.537737
964,-0.541798,0.049073,-0.476147,-0.977362,-0.034901,-0.050888,-17.601261,0.493577,-1.160141
965,-0.534896,0.051466,-0.476147,-0.962102,-0.045343,-0.058919,-15.8389,-0.072965,-0.971194
966,-0.530295,0.061041,-0.444753,-0.964511,-0.039721,-0.025188,-16.027699,1.060119,-1.348939
967,-0.532595,0.061041,-0.481379,-0.978968,-0.046949,-0.034826,-17.034866,-0.261763,-1.537737
968,-0.532595,0.061041,-0.481379,-0.964511,-0.046145,-0.044463,-19.741365,0.115982,-1.223024
969,-0.527994,0.063435,-0.465683,-0.972542,-0.039721,-0.036432,-23.64398,-0.387677,-1.411822
970,-0.530295,0.051466,-0.457834,-0.981377,-0.049358,0.003724,-26.917019,0.745407,-1.789566
971,-0.523393,0.056254,-0.455218,-0.976557,-0.048554,0.012558,-25.217543,-0.135848,-1.600768
972,-0.521092,0.049073,-0.444753,-0.972542,-0.050161,-0.034826,-22.448013,0.241748,-1.285907
973,-0.532595,0.068223,-0.429056,-1.006272,-0.049358,0.002118,-22.699694,0.367662,-1.034226
974,-0.532595,0.068223,-0.429056,-0.947647,-0.055783,-0.069358,-15.964816,0.682375,-1.160141
975,-0.523393,0.063435,-0.455218,-0.951662,-0.046145,-0.031613,-22.259214,-0.45056,-1.537737
976,-0.525693,0.063435,-0.468299,-0.957284,-0.047752,-0.03081,-33.2743,0.997087,-2.481874
977,-0.521092,0.068223,-0.421207,-0.97174,-0.010808,-0.011535,-40.135094,-0.639358,-1.978364
978,-0.530295,0.077798,-0.413358,-0.999045,-0.068633,-0.015551,-40.261009,5.025467,-1.789566
979,-0.530295,0.070616,-0.421207,-0.97174,-0.071845,-0.025188,-38.058022,-2.212921,-2.230194
980,-0.537196,0.077798,-0.421207,-0.954071,-0.070238,-0.022779,-36.924938,3.389022,-3.048416
981,-0.537196,0.077798,-0.421207,-0.992619,-0.03169,-0.020369,-35.603203,-2.779463,-2.859619
982,-0.530295,0.065829,-0.434288,-1.020729,-0.030083,-0.00752,-36.232628,2.193055,-1.600768
983,-0.534896,0.07301,-0.413358,-0.993423,-0.038114,-0.050888,-39.127926,-0.891188,-0.719514
984,-0.521092,0.075404,-0.402894,-0.94604,-0.05257,-0.030006,-38.750328,0.997087,-1.978364
985,-0.541798,0.07301,-0.389813,-0.964511,-0.063011,-0.048479,-41.205147,-0.828156,-2.167162
986,-0.541798,0.077798,-0.410742,-0.974953,-0.058192,-0.050888,-39.631584,0.430694,-2.544906
987,-0.541798,0.077798,-0.410742,-0.977362,-0.039721,-0.000291,-32.330162,0.115982,-1.348939
988,-0.527994,0.075404,-0.400277,-0.962102,-0.049358,-0.026795,-29.056978,1.123002,-1.852449
989,-0.537196,0.082585,-0.415975,-0.978164,-0.070238,-0.04125,-30.315975,0.997087,-1.160141
990,-0.544098,0.082585,-0.400277,-0.9613,-0.063011,-0.029204,-32.078335,0.178865,-1.852449
991,-0.546399,0.089767,-0.395045,-0.967724,-0.066223,-0.013142,-31.952421,1.752427,-2.607789
992,-0.546399,0.094554,-0.395045,-0.968526,-0.053374,-0.044463,-29.875347,-0.324646,-1.411822
993,-0.544098,0.106523,-0.374115,-0.963709,-0.049358,-0.042053,-28.364668,0.556609,-1.285907
994,-0.544098,0.106523,-0.374115,-0.962102,-0.040523,-0.039644,-29.938229,0.682375,-1.411822
995,-0.544098,0.101735,-0.387196,-0.986999,-0.037312,0.008542,-32.70776,0.871322,-1.600768
996,-0.5487,0.094554,-0.379348,-0.955678,-0.033297,-0.038841,-35.099545,0.556609,-0.971194
997,-0.546399,0.089767,-0.361035,-0.974953,-0.03169,-0.077389,-39.127926,0.178865,-1.789566
998,-0.546399,0.089767,-0.361035,-0.944434,-0.041327,-0.020369,-44.855782,0.556609,-1.285907
999,-0.539497,0.094554,-0.355802,-0.969331,-0.046949,-0.030006,-45.611122,1.248917,-1.789566
1000,-0.539497,0.094554,-0.355802,-0.963709,-0.03169,-0.015551,-43.974678,-1.017102,-2.544906
1001,-0.544098,0.094554,-0.353186,-0.9613,-0.041327,-0.011535,-41.331062,-1.142868,-1.852449
1002,-0.546399,0.094554,-0.347954,-0.953269,-0.044539,-0.052494,-37.743309,0.178865,-2.293077
1003,-0.546399,0.104129,-0.32964,-0.983786,-0.036508,-0.006717,-38.120903,-0.891188,-1.663651
1004,-0.5487,0.101735,-0.342721,-0.958087,-0.039721,-0.042053,-36.106712,0.430694,-2.355959
1005,-0.546399,0.106523,-0.319176,-0.979771,-0.037312,-0.013944,-36.799023,-1.079985,-2.796587
1006,-0.546399,0.106523,-0.319176,-0.997439,-0.045343,-0.021975,-34.02964,3.766618,-1.789566
1007,-0.553301,0.101735,-0.337489,-0.989408,-0.049358,-0.013142,-27.231731,-3.408888,-0.971194
1008,-0.557902,0.108917,-0.334873,-0.993423,-0.062207,-0.038841,-27.861156,4.08133,-2.230194
1009,-0.557902,0.104129,-0.321792,-0.943631,-0.046145,-0.046068,-30.819485,-4.227111,-0.719514
1010,-0.541798,0.113704,-0.324408,-0.975755,-0.030083,-0.036432,-27.861156,4.396042,-1.915481
1011,-0.553301,0.113704,-0.332257,-0.978968,-0.042934,-0.034826,-24.839798,-2.968261,-0.908311
1012,-0.551,0.104129,-0.319176,-0.979771,-0.039721,-0.043659,-22.007385,3.955415,-2.355959
1013,-0.551,0.104129,-0.319176,-0.991817,-0.028477,-0.053297,-26.224564,-3.97543,-1.537737
1014,-0.557902,0.108917,-0.313943,-0.982179,-0.042934,-0.080603,-33.085358,5.403212,-1.852449
1015,-0.555601,0.108917,-0.316559,-0.972542,-0.033297,-0.078194,-40.827404,-3.157058,-1.789566
1016,-0.553301,0.104129,-0.298246,-0.966118,-0.025266,0.014966,-45.29641,2.255938,-2.985384
1017,-0.546399,0.104129,-0.311327,-0.977362,-0.039721,-0.060525,-50.520756,-0.135848,-2.230194
1018,-0.546399,0.104129,-0.300862,-0.980573,-0.038917,-0.05651,-51.590809,0.934205,-2.796587
1019,-0.546399,0.104129,-0.300862,-0.987801,-0.058192,-0.024386,-53.416203,2.130172,-2.230194
1020,-0.541798,0.106523,-0.266851,-0.986195,-0.025266,-0.058116,-56.18573,-0.639358,-1.789566
1021,-0.553301,0.123279,-0.266851,-0.949253,-0.078269,-0.013944,-58.13689,1.878342,-3.174331
1022,-0.5487,0.108917,-0.293013,-0.950056,-0.058996,-0.046068,-56.626209,0.304779,-2.985384
1023,-0.551,0.113704,-0.251155,-1.00547,-0.042934,0.020588,-56.500443,2.633682,-1.663651
1024,-0.551,0.120886,-0.243306,-0.950858,-0.034099,0.014164,-58.010975,1.186034,-1.726534
1025,-0.5487,0.118492,-0.253771,-0.984588,-0.027674,-0.009126,-67.452499,-0.576475,-2.293077
1026,-0.5487,0.118492,-0.253771,-1.071324,-0.113606,-0.027597,-72.550934,15.725842,-4.055437
1027,-0.557902,0.123279,-0.24069,-1.025547,-0.050161,-0.074178,-62.857727,19.502542,-2.230194
1028,-0.555601,0.123279,-0.24069,-0.970937,-0.040523,-0.034022,-57.444584,-11.717477,0.035826
1029,-0.553301,0.116098,-0.204063,-1.001454,-0.125652,-0.020369,-58.577518,-19.83712,-2.481874
1030,-0.564804,0.130461,-0.193598,-1.02876,-0.002777,0.023802,-62.354069,19.061914,-5.880829
1031,-0.560203,0.125673,-0.206679,-1.018319,-0.044539,-0.062132,-67.012024,2.318969,-2.859619
1032,-0.560203,0.125673,-0.206679,-1.129149,0.009269,-0.080603,-74.502235,-2.401867,-2.481874
1033,-0.555601,0.128067,-0.177901,-1.033578,-0.038114,0.043077,-77.460564,-9.640255,-0.971194
1034,-0.551,0.130461,-0.206679,-1.148422,-0.002777,-0.052494,-75.823975,17.362436,-0.719514
1035,-0.567104,0.120886,-0.180517,-1.02876,-0.038917,-0.050085,-74.628151,4.584989,-0.152972
1036,-0.564804,0.130461,-0.175285,-0.975755,-0.079876,-0.010733,-76.516426,-10.647425,-2.167162
1037,-0.564804,0.130461,-0.146507,-0.904279,-0.067829,0.053516,-79.852348,7.291487,-3.614959
1038,-0.564804,0.130461,-0.146507,-0.948449,-0.092726,-0.054101,-85.580208,7.102689,-5.314436
1039,-0.567104,0.123279,-0.146507,-0.963709,-0.01643,-0.013142,-81.551826,0.304779,-5.440202
1040,-0.555601,0.116098,-0.141274,-1.013501,-0.035705,-0.005913,-72.17334,-1.772442,-4.559096
1041,-0.560203,0.125673,-0.117729,-1.027154,-0.03169,-0.018764,-67.515533,-0.639358,-3.300097
1042,-0.560203,0.123279,-0.122961,-1.033578,-0.024461,-0.025188,-64.179459,3.703735,-2.104279
1043,-0.553301,0.125673,-0.096799,-1.002257,-0.046949,-0.030006,-52.094318,-4.982451,-0.908311
1044,-0.553301,0.125673,-0.091567,-0.921947,-0.083089,-0.001095,-61.347046,7.35437,-0.908311
1045,-0.553301,0.125673,-0.091567,-0.899459,-0.093529,-0.078194,-66.130768,1.437715,-3.551927
1046,-0.560203,0.113704,-0.062788,-0.909097,-0.02125,-0.06695,-61.472961,-0.765273,-3.992554
1047,-0.564804,0.123279,-0.05494,-0.930781,-0.037312,0.009346,-59.458771,-5.611876,-2.670672
1048,-0.555601,0.116098,-0.060172,-1.003061,-0.01643,-0.034826,-53.856831,1.060119,-1.348939
1049,-0.574006,0.104129,-0.081102,-1.007077,-0.018839,-0.045266,-44.226357,1.752427,-1.285907
1050,-0.567104,0.111311,-0.049708,-0.978968,-0.038114,-0.009126,-43.974678,-2.275953,-0.971194
1051,-0.567104,0.111311,-0.049708,-0.958889,-0.042934,-0.019566,-44.289391,0.745407,-1.411822
1052,-0.569405,0.113704,-0.062788,-0.940418,-0.063814,-0.049281,-42.401115,-2.150038,-1.726534
1053,-0.567104,0.116098,-0.039243,-0.981377,-0.055783,-0.038037,-34.596035,2.381852,-2.418991
1054,-0.569405,0.106523,-0.020929,-0.967724,-0.037312,0.018982,-32.770645,-0.765273,-2.418991
1055,-0.574006,0.108917,-0.023546,-0.985393,-0.043736,-0.03081,-29.938229,0.430694,-2.041247
1056,-0.564804,0.099342,-0.03401,-0.992619,-0.03169,-0.021975,-22.133301,-3.346005,-1.223024
1057,-0.569405,0.099342,-0.031394,-0.95648,-0.045343,-0.038037,-25.091627,2.318969,-1.285907
1058,-0.569405,0.099342,-0.031394,-0.988604,-0.042934,-0.021173,-22.196182,2.318969,-1.411822
1059,-0.571706,0.094554,-0.041859,-1.011894,-0.02687,0.003724,-21.189163,0.556609,-0.719514
1060,-0.557902,0.104129,0,-0.981377,-0.037312,-0.018764,-23.518064,3.200224,-0.656482
1061,-0.571706,0.106523,-0.018313,-0.987801,-0.04213,-0.014748,-20.62262,-2.527633,-1.223024
1062,-0.571706,0.104129,-0.020929,-0.959693,-0.046145,-0.034022,-19.11194,0.682375,-1.285907
1063,-0.564804,0.099342,-0.020929,-0.962102,-0.044539,-0.038841,-16.153614,-0.828156,-1.474854
1064,-0.564804,0.099342,-0.020929,-0.968526,-0.032492,-0.046872,-15.083561,1.437715,-1.411822
1065,-0.560203,0.094554,-0.015697,-0.981377,-0.038917,-0.033219,-14.391253,0.619492,-1.411822
1066,-0.564804,0.099342,-0.03401,-0.97174,-0.033297,-0.021173,-17.286549,-0.198731,-1.223024
1067,-0.560203,0.09216,-0.023546,-0.987801,-0.038114,-0.03081,-18.041889,1.248917,-1.034226
1068,-0.560203,0.09216,-0.007848,-0.966118,-0.035705,-0.034826,-18.230835,-1.772442,-1.160141
1069,-0.557902,0.089767,-0.031394,-0.962102,-0.039721,-0.046872,-20.181992,2.381852,-0.782397
1070,-0.557902,0.089767,-0.031394,-0.980573,-0.033297,-0.058116,-23.266235,0.430694,-1.537737
1071,-0.567104,0.089767,-0.013081,-0.975755,-0.051767,-0.038841,-26.287594,1.374832,-1.411822
1072,-0.564804,0.099342,0.013081,-0.978164,-0.047752,-0.059721,-26.16168,0.682375,-1.411822
1073,-0.569405,0.084979,-0.010465,-0.970937,-0.041327,-0.019566,-24.588118,0.430694,-0.971194
1074,-0.564804,0.099342,0.010465,-0.970937,-0.042934,-0.055705,-21.566757,0.997087,-0.845429
1075,-0.567104,0.084979,0.02093,-0.970937,-0.042934,-0.05169,-23.706863,0.367662,-1.285907
1076,-0.569405,0.077798,0.026162,-0.958889,-0.050161,-0.05651,-28.049955,-0.135848,-1.537737
1077,-0.569405,0.077798,0.026162,-0.979771,-0.047752,-0.050888,-32.330162,-0.324646,-1.348939
1078,-0.576307,0.089767,0.031395,-0.963709,-0.038917,-0.042857,-34.973778,1.437715,-1.474854
1079,-0.569405,0.077798,0.031395,-0.970937,-0.067829,-0.027597,-37.113735,2.004257,-2.104279
1080,-0.564804,0.084979,0.018314,-0.969331,-0.063011,-0.028401,-41.205147,-1.772442,-2.481874
1081,-0.560203,0.077798,0.028778,-0.960495,-0.049358,-0.044463,-41.834572,0.997087,-2.041247
1082,-0.567104,0.084979,0.028778,-0.964511,-0.057389,-0.033219,-35.917915,-1.2059,-2.167162
1083,-0.567104,0.084979,0.028778,-0.962102,-0.050161,-0.03081,-30.44174,1.374832,-1.789566
1084,-0.557902,0.084979,0.015697,-0.964511,-0.05257,-0.025188,-26.16168,0.934205,-1.915481
1085,-0.567104,0.07301,0.036627,-0.994226,-0.049358,-0.030006,-23.392151,-0.513443,-1.223024
1086,-0.560203,0.07301,0.057556,-0.996637,-0.033297,-0.005913,-26.16168,2.130172,-1.852449
1087,-0.576307,0.075404,0.034011,-0.985393,-0.045343,-0.009126,-21.944502,-0.954071,-0.971194
1088,-0.576307,0.080192,0.044476,-0.958889,-0.044539,-0.036432,-23.329119,0.493577,-1.223024
1089,-0.576307,0.080192,0.044476,-0.94604,-0.029281,-0.035628,-25.658169,-1.2059,-1.789566
1090,-0.583209,0.077798,0.049708,-0.919538,-0.047752,-0.049281,-30.44174,0.05295,-1.411822
1091,-0.564804,0.068223,0.034011,-0.957284,-0.050161,-0.042857,-34.281322,-1.457581,-1.915481
1092,-0.571706,0.082585,0.062789,-0.951662,-0.035705,-0.028401,-32.330162,0.178865,-2.418991
1093,-0.571706,0.063435,0.060173,-1.007879,-0.039721,-0.030006,-34.281322,-0.891188,-1.348939
1094,-0.574006,0.07301,0.07587,-1.004668,-0.046145,-0.033219,-34.784832,1.500747,-1.097109
1095,-0.576307,0.065829,0.070637,-0.978164,-0.048554,-0.030006,-28.427551,1.752427,-1.285907
1096,-0.576307,0.065829,0.070637,-1.001454,-0.045343,-0.045266,-32.14122,1.689544,-0.341769
1097,-0.583209,0.056254,0.086335,-0.957284,-0.050161,-0.034826,-33.211269,-1.331815,-0.656482
1098,-0.585509,0.063435,0.088951,-0.88661,-0.063011,-0.043659,-35.28849,0.05295,-0.719514
1099,-0.580908,0.041891,0.107264,-0.938812,-0.049358,-0.012338,-27.672359,1.689544,-2.733704
1100,-0.571706,0.05386,0.078486,-0.962102,-0.046145,-0.052494,-21.126131,0.997087,-2.544906
1101,-0.576307,0.05386,0.081102,-0.985393,-0.047752,-0.032417,-22.699694,-0.765273,-1.411822
1102,-0.576307,0.05386,0.081102,-0.99503,-0.036508,-0.057312,-30.693569,0.80829,-1.348939
1103,-0.574006,0.044285,0.070637,-0.972542,-0.033297,-0.043659,-36.862053,0.997087,-1.726534
1104,-0.576307,0.039497,0.096799,-0.965315,-0.048554,-0.019566,-41.897453,0.367662,-2.733704
1105,-0.585509,0.044285,0.088951,-0.970937,-0.033297,-0.058919,-40.827404,3.451905,-2.293077
1106,-0.578608,0.03471,0.10988,-0.958889,-0.054176,-0.016353,-37.869076,-3.849515,-2.544906
1107,-0.580908,0.03471,0.125578,-0.958087,-0.078269,-0.038037,-37.428596,2.06714,-2.230194
1108,-0.578608,0.039497,0.154356,-0.986999,-0.059798,-0.018764,-38.435616,-1.079985,-2.985384
1109,-0.578608,0.039497,0.154356,-0.966118,-0.057389,-0.057312,-36.987968,-0.576475,-2.670672
1110,-0.571706,0.022741,0.128194,-0.984588,-0.061405,-0.001898,-34.973778,3.766618,-2.544906
1111,-0.578608,0.029922,0.120345,-0.983786,-0.026068,-0.055705,-31.88954,-2.527633,-1.915481
1112,-0.571706,0.01556,0.117729,-0.958889,-0.058192,-0.036432,-34.407238,2.004257,-2.670672
1113,-0.569405,0.022741,0.122961,-0.977362,-0.038917,-0.081405,-39.127926,2.507767,-1.915481
1114,-0.574006,0.027529,0.141275,-0.940418,-0.082284,-0.021173,-40.323891,-2.401867,-1.285907
1115,-0.574006,0.027529,0.141275,-0.945238,-0.030886,-0.135214,-38.309704,2.570799,-1.600768
1116,-0.576307,0.010772,0.167437,-0.905885,-0.063814,-0.044463,-36.043831,-5.674908,-2.355959
1117,-0.583209,0.017954,0.154356,-0.866533,-0.07586,-0.026795,-39.065041,-2.150038,-2.167162
1118,-0.583209,0.017954,0.154356,-0.994226,-0.056585,-0.057312,-41.708656,1.878342,-3.048416
1119,-0.578608,0.020347,0.149123,-1.003061,-0.033297,-0.009929,-41.268028,-0.513443,-2.355959
1120,-0.574006,0.013166,0.141275,-0.974953,-0.036508,0.019786,-42.149284,2.130172,-1.223024
1121,-0.574006,0.013166,0.141275,-1.008683,-0.046145,-0.028401,-36.54734,3.011277,-1.474854
1122,-0.576307,0.010772,0.175285,-0.962102,-0.043736,-0.035628,-32.959587,1.123002,-1.097109
1123,-0.583209,0.005985,0.172669,-0.99503,-0.048554,-0.050085,-31.322994,2.444884,-1.223024
1124,-0.583209,0.001197,0.177901,-0.987801,-0.050161,-0.023582,-30.567656,-1.079985,-1.348939
1125,-0.58781,0.013166,0.183134,-0.975755,-0.035705,-0.028401,-31.44891,0.619492,-1.852449
1126,-0.590111,0.017954,0.201447,-0.982179,-0.040523,-0.042857,-34.596035,-1.835325,-2.167162
1127,-0.583209,0.001197,0.16482,-0.967724,-0.049358,-0.049281,-35.917915,0.556609,-1.537737
1128,-0.583209,0.001197,0.16482,-0.991015,-0.035705,-0.046872,-35.854885,-1.017102,-1.789566
1129,-0.590111,0.005985,0.209296,-0.94604,-0.036508,-0.03081,-38.750328,1.815459,-1.474854
1130,-0.585509,0.008378,0.217144,-0.980573,-0.049358,-0.025188,-44.604103,-1.835325,-2.670672
1131,-0.585509,-0.005984,0.201447,-0.985393,-0.041327,-0.002702,-45.737038,0.619492,-2.230194
1132,-0.583209,-0.005984,0.222377,-0.967724,-0.05257,-0.040448,-46.177666,0.934205,-1.474854
1133,-0.576307,-0.008378,0.219761,-0.954873,-0.040523,-0.048479,-48.632481,1.3118,-2.293077
1134,-0.576307,-0.008378,0.219761,-0.978164,-0.060601,-0.043659,-53.982594,0.619492,-2.733704
1135,-0.578608,-0.020347,0.230225,-0.96692,-0.056585,-0.053297,-56.563328,-2.401867,-2.355959
1136,-0.592411,-0.017953,0.214528,-0.981377,-0.035705,-0.011535,-58.82935,1.3118,-2.544906
1137,-0.592411,-0.022741,0.219761,-0.992619,-0.034099,-0.029204,-55.493275,1.941225,-1.537737
1138,-0.578608,-0.037103,0.222377,-0.965315,-0.036508,-0.045266,-51.213215,0.367662,-1.978364
1139,-0.578608,-0.049072,0.227609,-0.995832,-0.035705,-0.057312,-47.3106,2.381852,-1.852449
1140,-0.576307,-0.046678,0.232842,-0.9613,-0.044539,-0.058116,-46.492378,0.115982,-1.726534
1141,-0.576307,-0.046678,0.232842,-0.949253,-0.055783,-0.030006,-45.737038,0.115982,-1.915481
1142,-0.578608,-0.053859,0.222377,-0.954873,-0.046949,-0.038841,-44.981697,3.32599,-2.670672
1143,-0.578608,-0.065828,0.227609,-0.994226,-0.04213,-0.0798,-43.53405,3.514937,-1.474854
1144,-0.578608,-0.056253,0.259003,-0.974149,-0.019644,-0.058116,-45.044731,-0.70239,-1.474854
1145,-0.576307,-0.075403,0.243306,-0.998241,-0.019644,-0.087027,-41.01635,2.444884,-0.719514
1146,-0.583209,-0.068222,0.251155,-0.950858,-0.054176,-0.044463,-40.827404,-2.527633,-2.167162
1147,-0.583209,-0.068222,0.251155,-0.954071,-0.069436,-0.045266,-43.53405,1.060119,-3.551927
1148,-0.580908,-0.075403,0.259003,-0.978968,-0.06542,-0.025991,-43.911644,-0.954071,-1.978364
1149,-0.585509,-0.084978,0.277317,-0.914719,-0.034901,-0.05651,-42.401115,1.248917,-2.481874
1150,-0.58781,-0.075403,0.266852,-0.913112,-0.038114,-0.035628,-46.681175,-1.017102,-2.670672
1151,-0.590111,-0.084978,0.243306,-0.980573,-0.066223,-0.011535,-47.184834,1.878342,-3.174331
1152,-0.583209,-0.094553,0.282549,-0.976557,-0.03169,-0.058919,-46.177666,1.689544,-4.055437
1153,-0.583209,-0.094553,0.282549,-1.048838,-0.054176,-0.052494,-40.449806,-1.96124,-2.167162
1154,-0.590111,-0.089766,0.274701,-0.985393,-0.036508,-0.022779,-40.701637,2.318969,-1.348939
1155,-0.592411,-0.101735,0.269468,-0.979771,-0.018037,-0.036432,-43.911644,1.752427,-1.034226
1156,-0.583209,-0.104128,0.287782,-0.954071,-0.039721,-0.053297,-42.589912,1.374832,-0.656482
1157,-0.592411,-0.118491,0.279933,-0.986999,-0.039721,-0.028401,-41.456978,0.367662,-1.600768
1158,-0.585509,-0.113704,0.272084,-0.995832,-0.054176,-0.033219,-43.659966,0.367662,-1.663651
1159,-0.590111,-0.113704,0.300863,-0.96692,-0.020446,-0.016353,-46.995888,1.626513,-1.474854
1160,-0.590111,-0.113704,0.300863,-0.953269,-0.028477,-0.058919,-42.149284,1.248917,-1.474854
1161,-0.578608,-0.125672,0.29563,-0.968526,-0.062207,-0.032417,-31.574823,-0.324646,-2.104279
1162,-0.590111,-0.123279,0.300863,-0.964511,-0.054176,-0.025991,-28.868177,0.997087,-1.663651
1163,-0.583209,-0.135247,0.303479,-0.978164,-0.030083,-0.031613,-39.379753,-0.70239,-1.537737
1164,-0.592411,-0.123279,0.303479,-0.97174,-0.045343,-0.032417,-38.120903,1.123002,-1.852449
1165,-0.585509,-0.144823,0.306095,-0.979771,-0.044539,-0.066147,-30.190062,3.766618,-0.908311
1166,-0.585509,-0.144823,0.306095,-0.977362,-0.051767,-0.065343,-26.539276,-3.22009,-0.908311
1167,-0.594712,-0.137641,0.347954,-0.954873,-0.057389,-0.008322,-23.014406,0.05295,-1.160141
1168,-0.594712,-0.142429,0.334873,-0.941221,-0.027674,-0.088633,-17.286549,0.115982,-1.537737
1169,-0.590111,-0.14961,0.298246,-0.950858,-0.046145,-0.054903,-26.098648,-0.639358,-2.167162
1170,-0.590111,-0.14961,0.319176,-0.933994,-0.054176,-0.000291,-31.76362,0.367662,-2.167162
1171,-0.592411,-0.159185,0.324408,-0.95648,-0.043736,-0.060525,-30.819485,1.689544,-1.600768
1172,-0.58781,-0.161579,0.319176,-0.9613,-0.043736,-0.05651,-27.798126,1.878342,-2.041247
1173,-0.58781,-0.161579,0.319176,-0.998241,-0.04213,-0.033219,-33.651897,-8.192608,-2.230194
1174,-0.58781,-0.16876,0.308711,-1.006272,-0.067829,0.00292,-36.54734,4.08133,-1.789566
1175,-0.58781,-0.173548,0.324408,-0.953269,-0.063814,-0.062934,-34.155407,-0.009933,-2.670672
1176,-0.576307,-0.173548,0.340106,-0.955678,-0.018839,-0.037235,-34.02964,-2.842346,-2.041247
1177,-0.578608,-0.163973,0.329641,-0.946843,-0.027674,-0.055705,-34.659065,1.374832,-1.600768
1178,-0.578608,-0.180729,0.329641,-0.970937,-0.058192,-0.05651,-31.385878,-1.2059,-1.726534
1179,-0.578608,-0.180729,0.329641,-0.954071,-0.058192,-0.012338,-32.01545,-0.072965,-1.852449
1180,-0.580908,-0.185517,0.332257,-0.976557,-0.064618,-0.065343,-30.88237,3.57782,-1.600768
1181,-0.58781,-0.178335,0.332257,-0.968526,-0.044539,-0.039644,-25.909851,-2.46475,-1.789566
1182,-0.583209,-0.183123,0.340106,-0.952465,-0.049358,-0.019566,-22.825607,1.186034,-1.537737
1183,-0.580908,-0.178335,0.327025,-0.965315,-0.025266,-0.069358,-18.230835,1.437715,-1.097109
1184,-0.58781,-0.175942,0.337489,-0.978968,-0.045343,-0.039644,-19.678482,-2.150038,-0.971194
1185,-0.58781,-0.175942,0.337489,-0.981377,-0.034901,-0.054903,-25.40634,3.57782,-1.034226
1186,-0.583209,-0.18791,0.35057,-0.9613,-0.030083,-0.047675,-38.876244,1.3118,-1.537737
1187,-0.590111,-0.18791,0.334873,-0.96692,-0.038917,-0.049281,-41.331062,0.619492,-1.600768
1188,-0.583209,-0.195092,0.329641,-0.973346,-0.059798,-0.023582,-36.295513,2.193055,-0.908311
1189,-0.58781,-0.190304,0.324408,-1.006272,-0.085498,0.043879,-29.056978,-5.108366,-0.530716
1190,-0.583209,-0.202273,0.381965,-1.025547,-0.068633,-0.053297,-28.868177,5.969605,-1.223024
1191,-0.567104,-0.204667,0.363651,-0.986195,-0.043736,-0.082209,-34.281322,0.430694,-1.915481
1192,-0.567104,-0.204667,0.363651,-1.001454,-0.03169,-0.016353,-31.385878,-3.282973,-2.041247
1193,-0.583209,-0.214242,0.345338,-0.978968,-0.050965,-0.035628,-22.070269,1.878342,-1.097109
1194,-0.567104,-0.214242,0.381965,-0.973346,-0.046145,-0.046068,-21.944502,-3.031292,-1.223024
1195,-0.576307,-0.230998,0.35057,-0.980573,-0.05257,-0.011535,-23.014406,-0.198731,-1.600768
1196,-0.585509,-0.221423,0.340106,-0.972542,-0.03169,-0.036432,-27.294615,-0.70239,-2.167162
1197,-0.578608,-0.230998,0.355803,-0.914719,-0.005991,-0.093451,-35.162575,-1.835325,-0.971194
1198,-0.578608,-0.230998,0.355803,-0.868138,-0.104773,-0.060525,-27.609327,4.962584,-3.174331
1199,-0.585509,-0.228604,0.368883,-0.955678,-0.043736,-0.068556,-27.357498,-7.374385,-4.244384
1200,-0.58781,-0.235786,0.366267,-0.986195,-0.036508,0.005331,-34.596035,-4.101345,-2.355959
1201,-0.583209,-0.233392,0.361035,-1.003061,-0.013217,-0.082209,-38.120903,6.662062,-0.341769
1202,-0.58781,-0.238179,0.345338,-0.921947,-0.037312,-0.046068,-38.183788,-3.660718,-0.530716
1203,-0.585509,-0.240573,0.363651,-0.91231,-0.075058,-0.034826,-31.260113,-10.26968,-2.418991
1204,-0.58781,-0.245361,0.363651,-0.944434,-0.083089,-0.005111,-27.735243,6.221434,-2.733704
1205,-0.58781,-0.245361,0.363651,-0.9613,-0.044539,-0.043659,-21.88147,-0.135848,-2.985384
1206,-0.58781,-0.245361,0.361035,-0.996637,-0.045343,-0.05169,-15.083561,-6.74496,-2.230194
1207,-0.592411,-0.247754,0.3715,-0.97174,-0.076664,-0.012338,-18.104919,2.507767,-1.223024
1208,-0.592411,-0.245361,0.376732,-0.970937,-0.038114,-0.050085,-19.615452,0.80829,-1.852449
1209,-0.590111,-0.252542,0.363651,-0.968526,-0.02687,-0.030006,-18.671314,-1.268783,-0.467684
1210,-0.594712,-0.25733,0.376732,-0.985393,-0.035705,-0.054903,-22.951523,2.381852,-0.908311
1211,-0.594712,-0.25733,0.376732,-0.980573,-0.040523,-0.042857,-25.658169,-1.520613,-1.348939
1212,-0.58781,-0.254936,0.361035,-0.985393,-0.032492,-0.010733,-28.490582,2.255938,-1.663651
1213,-0.585509,-0.269298,0.392429,-0.97174,-0.046949,-0.046068,-32.20425,0.178865,-0.908311
1214,-0.58781,-0.274086,0.374116,-0.982984,-0.044539,-0.014748,-33.840694,0.367662,-1.348939
1215,-0.583209,-0.278873,0.389813,-0.972542,-0.041327,-0.058116,-28.805296,1.752427,-0.782397
1216,-0.585509,-0.281267,0.374116,-0.992619,-0.060601,-0.046872,-25.469223,-1.079985,-1.348939
1217,-0.585509,-0.281267,0.374116,-0.966118,-0.064618,-0.021173,-26.287594,2.130172,-1.160141
1218,-0.594712,-0.293236,0.387197,-0.959693,-0.028477,-0.057312,-21.189163,0.05295,-1.097109
1219,-0.580908,-0.288449,0.387197,-0.970133,-0.035705,-0.048479,-21.189163,-0.828156,-0.593599
1220,-0.583209,-0.283661,0.358419,-0.954873,-0.039721,-0.042053,-21.252045,1.878342,-0.719514
1221,-0.585509,-0.286055,0.392429,-0.974953,-0.050161,-0.059721,-23.580948,-0.828156,-1.915481
1222,-0.590111,-0.29563,0.387197,-0.991015,-0.058192,-0.037235,-30.756451,1.437715,-1.600768
1223,-0.585509,-0.290842,0.413359,-0.979771,-0.035705,-0.062132,-32.518963,0.493577,-1.537737
1224,-0.585509,-0.290842,0.413359,-0.954873,-0.05257,-0.017157,-37.428596,-0.891188,-1.160141
1225,-0.590111,-0.293236,0.379348,-0.962102,-0.050965,-0.029204,-36.736141,2.318969,-1.097109
1226,-0.590111,-0.302811,0.381965,-0.977362,-0.023659,-0.050888,-34.092525,-0.45056,-1.600768
1227,-0.583209,-0.307599,0.402894,-0.989408,-0.025266,-0.009929,-32.581844,1.437715,-1.537737
1228,-0.578608,-0.302811,0.368883,-0.987801,-0.030083,-0.016353,-33.211269,0.05295,-2.041247
1229,-0.578608,-0.31478,0.379348,-0.978968,-0.055783,-0.042053,-33.840694,-1.017102,-1.411822
1230,-0.578608,-0.31478,0.379348,-0.96692,-0.05498,-0.048479,-28.364668,2.193055,-1.097109
1231,-0.578608,-0.319568,0.392429,-0.959693,-0.054176,-0.038037,-27.672359,-1.2059,-0.908311
1232,-0.585509,-0.326749,0.410743,-0.959693,-0.041327,-0.046872,-26.917019,1.815459,-1.600768
1233,-0.580908,-0.324355,0.431672,-0.963709,-0.032492,-0.059721,-26.602306,-0.009933,-1.537737
1234,-0.576307,-0.321961,0.40551,-0.954071,-0.046949,-0.067752,-27.735243,-0.70239,-0.530716
1235,-0.578608,-0.33393,0.381965,-0.951662,-0.05498,-0.035628,-28.994091,1.437715,-1.663651
1236,-0.578608,-0.33393,0.381965,-0.980573,-0.046949,-0.05169,-29.056978,0.682375,-1.852449
1237,-0.590111,-0.341111,0.395046,-0.981377,-0.048554,-0.023582,-30.44174,-0.009933,-1.348939
1238,-0.592411,-0.336324,0.429056,-0.965315,-0.046145,-0.052494,-30.190062,2.06714,-0.971194
1239,-0.580908,-0.343505,0.392429,-0.9613,-0.034099,-0.039644,-29.120007,-0.639358,-1.537737
1240,-0.583209,-0.350687,0.387197,-0.973346,-0.050161,-0.043659,-30.693569,1.248917,-1.852449
1241,-0.592411,-0.357868,0.402894,-0.974953,-0.049358,-0.048479,-30.88237,-0.387677,-1.411822
1242,-0.592411,-0.345899,0.400278,-0.978164,-0.055783,-0.01796,-28.049955,-0.135848,-2.041247
1243,-0.592411,-0.345899,0.400278,-0.966118,-0.045343,-0.054903,-28.364668,0.430694,-0.782397
1244,-0.597013,-0.350687,0.389813,-0.950056,-0.038917,-0.033219,-30.693569,0.241748,-1.223024
1245,-0.590111,-0.357868,0.381965,-0.953269,-0.038114,-0.05651,-30.630688,0.997087,-1.600768
1246,-0.585509,-0.367443,0.402894,-0.962904,-0.046145,-0.044463,-33.4631,0.304779,-1.160141
1247,-0.58781,-0.37223,0.392429,-0.9613,-0.039721,-0.054903,-36.106712,1.374832,-1.348939
1248,-0.590111,-0.374624,0.410743,-0.970133,-0.046145,-0.035628,-41.268028,0.115982,-2.230194
1249,-0.590111,-0.374624,0.410743,-0.989408,-0.030083,-0.01796,-39.505669,2.130172,-1.663651
1250,-0.590111,-0.381806,0.384581,-0.986999,-0.04213,-0.03081,-35.729118,-0.009933,-1.474854
1251,-0.590111,-0.377018,0.400278,-0.967724,-0.040523,-0.028401,-35.414406,1.878342,-2.104279
1252,-0.592411,-0.374624,0.40551,-0.983786,-0.007597,-0.06695,-37.617393,-0.198731,-2.104279
1253,-0.585509,-0.386593,0.379348,-0.980573,-0.058996,-0.020369,-43.974678,-0.324646,-1.348939
1254,-0.585509,-0.386593,0.418591,-0.988604,-0.047752,-0.029204,-41.897453,2.696565,-2.481874
1255,-0.58781,-0.39138,0.408127,-0.99503,-0.050161,-0.050888,-37.302681,-0.954071,-2.167162
1256,-0.58781,-0.39138,0.408127,-0.973346,-0.048554,-0.009929,-37.113735,1.626513,-1.160141
1257,-0.592411,-0.400956,0.400278,-0.991817,-0.044539,-0.04125,-38.183788,1.374832,-1.789566
1258,-0.58781,-0.400956,0.408127,-0.996637,-0.049358,-0.048479,-39.820381,-1.394698,-2.355959
1259,-0.585509,-0.405743,0.397662,-0.974953,-0.03169,-0.054903,-40.638603,2.633682,-2.167162
1260,-0.590111,-0.422499,0.40551,-0.95648,-0.041327,-0.020369,-40.197979,-0.765273,-1.160141
1261,-0.583209,-0.422499,0.431672,-0.960495,-0.041327,-0.030006,-34.596035,1.752427,-1.474854
1262,-0.583209,-0.422499,0.431672,-0.965315,-0.037312,-0.022779,-34.53315,0.05295,-0.656482
1263,-0.597013,-0.424893,0.402894,-0.982984,-0.068633,-0.027597,-37.302681,-0.576475,-2.481874
1264,-0.583209,-0.429681,0.400278,-0.992619,-0.04213,-0.052494,-37.994991,1.374832,-1.223024
1265,-0.592411,-0.439256,0.384581,-0.968526,-0.034099,-0.002702,-34.973778,0.682375,-1.411822
1266,-0.590111,-0.434468,0.40551,-0.963709,-0.049358,-0.021173,-35.477287,0.997087,-1.285907
1267,-0.590111,-0.446437,0.395046,-0.991015,-0.055783,-0.047675,-37.932106,-0.45056,-2.670672
1268,-0.590111,-0.446437,0.395046,-0.974953,-0.050965,-0.045266,-40.261009,1.374832,-2.481874
1269,-0.580908,-0.448831,0.408127,-0.968526,-0.033297,-0.046068,-40.009178,0.304779,-2.041247
1270,-0.592411,-0.4608,0.408127,-0.966118,-0.040523,-0.036432,-36.48431,-0.45056,-2.041247
1271,-0.585509,-0.458406,0.397662,-0.968526,-0.034099,-0.058116,-35.162575,1.500747,-0.719514
1272,-0.58781,-0.465587,0.413359,-0.94604,-0.022855,-0.037235,-33.589012,0.115982,-1.223024
1273,-0.58781,-0.465587,0.418591,-0.946843,-0.046145,-0.039644,-38.120903,0.178865,-1.663651
1274,-0.583209,-0.467981,0.421208,-0.969331,-0.046145,-0.034022,-40.323891,1.060119,-2.733704
1275,-0.583209,-0.467981,0.421208,-0.964511,-0.035705,-0.048479,-38.120903,0.493577,-1.348939
