Sequence,Geo-X,Geo-Y,Geo-Z,Acc-X,Acc-Y,Acc-Z,Gyro-X,Gyro-Y,Gyro-z
2,0.677535,-1.126267,-0.559866,-0.003194,-0.997023,0.028619,-0.858316,-0.261763,-0.656482
3,0.661431,-1.116692,-0.572946,-0.006405,-0.993007,0.019786,-0.354806,-0.45056,-0.404801
4,0.661431,-1.116692,-0.572946,-0.008816,-1.000236,0.022997,-0.480721,-0.513443,-0.908311
5,0.666032,-1.131054,-0.57033,0.00002,-1.001842,0.011755,-0.543603,-0.135848,-0.278886
6,0.672934,-1.116692,-0.575562,-0.003194,-0.988992,0.027013,-0.73255,-0.387677,-0.719514
7,0.661431,-1.126267,-0.575562,0.004035,-1.012282,0.025408,-0.73255,-0.387677,-0.593599
8,0.666032,-1.123873,-0.552017,0.002428,-0.993007,-0.001898,-0.921348,-0.072965,-0.593599
9,0.668332,-1.135842,-0.588643,0.001626,-1.002645,0.021393,-0.103125,-0.072965,-0.719514
10,0.668332,-1.135842,-0.588643,-0.01042,-0.993812,-0.001095,-0.166008,-0.198731,-0.593599
11,0.663731,-1.135842,-0.559866,-0.003194,-0.993007,0.018982,0.148705,-0.072965,-0.404801
12,0.675234,-1.126267,-0.580795,0.002428,-0.995418,0.022997,-0.480721,-0.261763,-0.719514
13,0.666032,-1.119086,-0.557249,0.001626,-0.992205,0.039863,-0.354806,-0.135848,-0.593599
14,0.661431,-1.119086,-0.567714,-0.006405,-0.993007,0.008542,-0.166008,0.05295,-0.719514
15,0.666032,-1.121479,-0.59126,-0.003194,-0.995418,0.009346,-0.480721,0.05295,-0.593599
16,0.652228,-1.123873,-0.580795,0.001626,-0.98819,0.022997,-0.543603,-0.072965,-1.034226
17,0.652228,-1.123873,-0.580795,0.000822,-0.999434,0.028619,-0.354806,-0.198731,-0.593599
18,0.661431,-1.111904,-0.575562,-0.0048,-0.997827,0.017377,-0.103125,-0.009933,-0.593599
19,0.65913,-1.131054,-0.57033,0.003231,-1.000236,0.00774,-0.606635,0.115982,-0.593599
20,0.661431,-1.123873,-0.580795,-0.003194,-1.001038,0.030226,-0.858316,-0.45056,-0.467684
21,0.661431,-1.123873,-0.565098,-0.002389,-1.005054,0.014164,-0.543603,-0.387677,-0.216004
22,0.654529,-1.119086,-0.557249,-0.008011,-1.003449,0.027013,-0.480721,0.05295,-0.278886
23,0.654529,-1.119086,-0.557249,-0.008011,-0.999434,0.016573,-0.291923,0.05295,-0.656482
24,0.65913,-1.135842,-0.586027,-0.001587,-0.999434,0.032635,-0.228891,-0.387677,-0.404801
25,0.645326,-1.126267,-0.572946,-0.0048,-0.998629,0.027817,-0.669518,-0.198731,-0.719514
26,0.661431,-1.131054,-0.565098,-0.001587,-0.991403,0.014966,-0.354806,-0.70239,-0.278886
27,0.654529,-1.131054,-0.567714,-0.008816,-0.993007,0.027817,-1.173028,0.05295,-0.782397
28,0.65913,-1.126267,-0.541552,0.008853,-1.009069,0.00292,-0.858316,-0.324646,-0.845429
29,0.663731,-1.119086,-0.554633,-0.000785,-0.998629,0.010951,-0.228891,-0.261763,-0.593599
30,0.663731,-1.119086,-0.554633,-0.001587,-0.997827,0.027013,-0.480721,-0.324646,-0.467684
31,0.661431,-1.131054,-0.562482,-0.003194,-0.987385,0.01818,-0.417838,-0.261763,-0.971194
32,0.663731,-1.135842,-0.565098,-0.000785,-0.993007,0.027013,-0.228891,-0.45056,-0.404801
33,0.656829,-1.126267,-0.565098,-0.014436,-0.997023,0.015771,-0.606635,-0.072965,-0.530716
34,0.661431,-1.126267,-0.565098,-0.003194,-0.984976,0.023802,-0.103125,0.05295,-0.467684
35,0.675234,-1.126267,-0.549401,-0.006405,-0.994614,0.017377,-0.417838,-0.198731,-0.782397
36,0.675234,-1.126267,-0.549401,-0.009618,-1.00666,0.009346,-0.040093,-0.072965,-0.467684
37,0.663731,-1.128661,-0.565098,-0.008011,-1.002645,0.032635,-0.606635,-0.198731,-0.593599
38,0.666032,-1.128661,-0.554633,-0.013633,-0.997827,0.009346,-0.543603,-0.072965,-0.530716
39,0.656829,-1.135842,-0.552017,-0.007209,-1.001038,0.008542,-0.480721,-0.009933,-0.404801
40,0.668332,-1.140629,-0.583411,0.002428,-1.003449,0.003724,-1.047263,-0.387677,-0.404801
41,0.666032,-1.128661,-0.565098,-0.001587,-0.997023,0.025408,-0.354806,0.05295,-0.845429
42,0.666032,-1.128661,-0.565098,-0.005602,-0.993812,0.014164,-0.480721,-0.072965,-0.656482
43,0.668332,-1.121479,-0.559866,-0.007209,-0.993007,0.017377,-0.606635,-0.009933,-0.467684
44,0.670633,-1.133448,-0.565098,-0.003996,-0.997023,0.016573,-0.480721,-0.135848,-0.656482
45,0.666032,-1.133448,-0.575562,0.001626,-0.997827,0.047092,-0.543603,-0.576475,-0.908311
46,0.656829,-1.128661,-0.578179,-0.001587,-0.989796,0.032635,-0.543603,-0.261763,-0.845429
47,0.661431,-1.128661,-0.578179,-0.008011,-0.984174,0.004527,-0.921348,-0.576475,-0.152972
48,0.661431,-1.138236,-0.562482,-0.005602,-0.994614,0.027817,-0.795433,-0.135848,-0.908311
49,0.661431,-1.138236,-0.562482,-0.003996,-0.999434,0.03665,-0.921348,0.05295,-0.341769
50,0.661431,-1.138236,-0.572946,-0.005602,-1.002645,0.025408,-0.291923,-0.387677,-1.034226
51,0.65913,-1.138236,-0.557249,-0.002389,-0.993812,0.021393,-0.480721,-0.513443,-0.593599
52,0.65913,-1.135842,-0.578179,-0.017649,-1.004251,0.00774,-0.480721,-0.198731,-0.782397
53,0.668332,-1.135842,-0.565098,-0.01042,-0.996221,0.021393,-0.669518,-0.639358,-0.341769
54,0.663731,-1.133448,-0.57033,-0.002389,-1.013085,0.021393,-0.669518,-0.324646,-0.467684
55,0.663731,-1.133448,-0.57033,0.00002,-0.982567,0.006133,-0.795433,-0.009933,-0.341769
56,0.661431,-1.128661,-0.546784,-0.008816,-0.992205,0.023802,-0.228891,-0.324646,-0.341769
57,0.65913,-1.128661,-0.575562,-0.001587,-0.996221,0.004527,-0.103125,-0.135848,-0.971194
58,0.652228,-1.128661,-0.580795,0.002428,-0.998629,0.027013,-0.166008,-0.135848,-0.782397
59,0.666032,-1.121479,-0.565098,-0.003194,-1.003449,0.029424,-0.166008,-0.261763,-0.782397
60,0.661431,-1.128661,-0.567714,-0.003194,-0.994614,0.010149,-0.669518,-0.135848,-0.530716
61,0.65913,-1.123873,-0.546784,-0.0048,-0.995418,0.019786,-0.669518,-0.70239,-0.467684
62,0.65913,-1.123873,-0.546784,0.001626,-0.999434,0.015771,-0.480721,-0.387677,-0.530716
63,0.652228,-1.119086,-0.559866,-0.009618,-0.998629,0.006133,-0.480721,-0.261763,-0.593599
64,0.656829,-1.131054,-0.557249,-0.008011,-0.993812,0.027817,-0.417838,-0.387677,-0.719514
65,0.654529,-1.119086,-0.572946,0.009657,-1.002645,0.004527,-0.354806,-0.072965,-0.152972
66,0.666032,-1.131054,-0.552017,-0.001587,-0.997023,0.017377,-0.480721,-0.45056,-0.656482
67,0.670633,-1.121479,-0.531087,-0.007209,-0.996221,0.033439,-0.480721,-0.135848,-0.656482
68,0.670633,-1.121479,-0.531087,-0.005602,-0.988992,0.012558,-0.73255,-0.387677,-0.593599
69,0.661431,-1.119086,-0.580795,-0.007209,-0.993007,0.051108,-0.480721,-0.135848,-0.216004
70,0.65913,-1.121479,-0.562482,-0.003194,-0.991403,0.016573,-0.417838,-0.009933,-0.908311
71,0.65913,-1.107117,-0.549401,-0.009618,-0.993812,0.016573,-0.480721,-0.198731,-0.278886
72,0.661431,-1.119086,-0.546784,0.001626,-0.999434,0.022195,-0.480721,-0.387677,-1.034226
73,0.661431,-1.133448,-0.541552,0.006444,-0.995418,0.020588,-0.73255,0.05295,-0.530716
74,0.661431,-1.133448,-0.541552,-0.009618,-0.997023,0.012558,-0.795433,-0.072965,-0.090089
75,0.668332,-1.135842,-0.557249,0.001626,-1.005858,0.015771,-0.795433,-0.072965,-0.278886
76,0.672934,-1.121479,-0.572946,-0.003194,-1.000236,0.027817,-0.73255,-0.198731,-0.719514
77,0.65913,-1.135842,-0.562482,-0.003194,-0.988992,-0.003504,-0.040093,-0.198731,-0.216004
78,0.661431,-1.133448,-0.565098,0.007248,-1.003449,0.012558,-0.166008,0.178865,-0.152972
79,0.661431,-1.121479,-0.562482,-0.008816,-1.003449,0.014164,-0.228891,-0.072965,-0.278886
80,0.666032,-1.123873,-0.575562,-0.001587,-0.997827,0.040666,-0.480721,-0.324646,-0.467684
81,0.666032,-1.123873,-0.575562,-0.001587,-0.997827,0.021393,-0.291923,0.05295,-0.341769
82,0.668332,-1.123873,-0.559866,-0.003996,-0.993812,0.016573,-0.606635,0.05295,-0.845429
83,0.663731,-1.121479,-0.575562,0.002428,-1.001842,0.014164,-0.291923,-0.198731,-0.404801
84,0.666032,-1.123873,-0.580795,-0.007209,-0.98819,0.005331,-0.543603,-0.45056,-0.845429
85,0.670633,-1.121479,-0.572946,-0.001587,-1.005858,0.026211,-0.73255,-0.198731,-0.656482
86,0.668332,-1.123873,-0.575562,-0.008011,-0.997827,0.009346,-0.606635,-0.513443,-0.341769
87,0.668332,-1.123873,-0.575562,-0.003194,-1.005858,0.047092,-0.73255,-0.639358,-0.404801
88,0.663731,-1.119086,-0.557249,-0.003996,-1.005054,0.021393,-0.417838,0.178865,-0.719514
89,0.661431,-1.119086,-0.544168,0.004035,-0.997827,0.01818,0.02279,-0.135848,-0.845429
90,0.666032,-1.123873,-0.580795,-0.001587,-0.993007,0.018982,-0.228891,-0.261763,-0.530716
91,0.661431,-1.131054,-0.562482,-0.01042,-0.997827,0.027817,-0.228891,-0.072965,-0.782397
92,0.670633,-1.131054,-0.557249,-0.000785,-0.997827,0.030226,-0.354806,-0.324646,-0.719514
93,0.670633,-1.131054,-0.557249,-0.006405,-0.995418,0.018982,-0.606635,-0.45056,-0.845429
94,0.661431,-1.140629,-0.562482,0.007248,-0.997023,0.019786,-0.543603,-0.009933,-0.782397
95,0.666032,-1.128661,-0.588643,-0.003194,-0.997827,0.018982,-0.606635,-0.324646,-0.908311
96,0.661431,-1.133448,-0.549401,-0.001587,-0.989796,0.001313,-0.417838,-0.45056,-0.404801
97,0.666032,-1.123873,-0.546784,-0.005602,-1.002645,0.045486,0.148705,-0.072965,-0.152972
98,0.666032,-1.123873,-0.554633,-0.005602,-0.989796,0.015771,-0.291923,-0.072965,-0.782397
99,0.656829,-1.121479,-0.562482,-0.008011,-0.994614,-0.004307,-0.606635,-0.198731,-0.719514
100,0.656829,-1.121479,-0.562482,0.006444,-1.004251,0.009346,-0.795433,-0.324646,-0.782397
101,0.666032,-1.111904,-0.552017,-0.0048,-0.997023,0.015771,-0.73255,-0.324646,-0.467684
102,0.654529,-1.114298,-0.557249,0.004837,-0.987385,0.027013,-0.480721,-0.324646,-0.467684
103,0.656829,-1.111904,-0.559866,-0.003194,-1.003449,0.003724,-0.228891,-0.198731,-0.467684
104,0.663731,-1.116692,-0.554633,-0.012831,-1.000236,-0.010733,-0.291923,0.304779,-0.908311
105,0.656829,-1.111904,-0.572946,0.006444,-0.995418,0.012558,-0.858316,0.05295,-0.719514
106,0.656829,-1.111904,-0.572946,-0.007209,-0.986583,0.010951,-0.354806,-0.072965,-0.530716
107,0.65913,-1.123873,-0.578179,-0.007209,-0.990598,0.01818,-1.110146,-0.387677,-0.782397
108,0.666032,-1.123873,-0.567714,0.007248,-1.000236,0.022997,-0.73255,-0.324646,-0.719514
109,0.65913,-1.126267,-0.565098,-0.008011,-1.004251,-0.001898,-0.291923,-0.072965,-0.971194
110,0.652228,-1.10951,-0.59126,-0.008011,-0.993812,0.004527,-0.354806,-0.135848,-0.593599
111,0.654529,-1.10951,-0.586027,-0.007209,-0.997023,0.006935,-0.606635,0.115982,-0.341769
112,0.649927,-1.114298,-0.559866,-0.016847,-0.997827,0.028619,-0.480721,-0.261763,-0.593599
113,0.649927,-1.114298,-0.559866,0.008051,-0.988992,0.003724,-0.606635,-0.70239,-1.160141
114,0.645326,-1.121479,-0.549401,-0.000785,-1.007465,0.020588,-0.73255,-0.45056,-0.782397
115,0.647627,-1.126267,-0.599108,-0.003194,-1.001842,0.000511,-0.166008,0.367662,-0.467684
116,0.656829,-1.121479,-0.572946,0.006444,-0.997023,0.014164,-0.354806,-0.513443,-0.404801
117,0.656829,-1.126267,-0.578179,-0.016042,-0.98819,0.018982,-0.228891,-0.198731,-0.908311
118,0.654529,-1.123873,-0.580795,0.00002,-0.999434,0.022997,-0.228891,0.241748,-0.530716
119,0.654529,-1.123873,-0.580795,0.002428,-0.993812,-0.001898,-0.228891,-0.009933,-0.278886
120,0.652228,-1.10951,-0.57033,-0.0048,-1.007465,0.015771,-0.606635,0.05295,-0.908311
121,0.65913,-1.121479,-0.552017,-0.000785,-0.995418,0.013362,-1.047263,0.05295,-0.404801
122,0.652228,-1.126267,-0.578179,-0.006405,-0.991403,0.013362,-0.543603,0.05295,-0.656482
123,0.652228,-1.123873,-0.586027,0.005642,-1.013085,0.023802,-0.417838,-0.135848,-0.467684
124,0.65913,-1.116692,-0.572946,0.008853,-1.00666,0.025408,-0.228891,-0.072965,-0.719514
125,0.65913,-1.116692,-0.572946,-0.007209,-0.997023,0.030226,-0.480721,-0.009933,-0.782397
126,0.661431,-1.111904,-0.575562,-0.003194,-0.994614,0.013362,0.085822,-0.198731,-0.467684
127,0.654529,-1.119086,-0.578179,-0.0048,-1.001038,0.008542,-0.795433,-0.135848,-0.341769
128,0.649927,-1.126267,-0.575562,0.000822,-0.999434,0.020588,-0.480721,-0.261763,-0.530716
129,0.647627,-1.116692,-0.572946,-0.003996,-0.997023,0.025408,-0.669518,-0.576475,-0.278886
130,0.654529,-1.128661,-0.57033,0.005642,-0.990598,0.012558,-0.166008,-0.576475,-0.404801
131,0.668332,-1.114298,-0.575562,-0.0048,-0.997827,0.00774,-0.228891,-0.072965,-0.593599
132,0.668332,-1.114298,-0.575562,-0.002389,-1.002645,0.008542,-0.73255,-0.387677,-0.530716
133,0.65913,-1.116692,-0.578179,-0.007209,-0.996221,0.035848,-0.606635,-0.198731,-0.782397
134,0.666032,-1.119086,-0.572946,0.004035,-1.003449,0.01818,-0.543603,-0.513443,-0.467684
135,0.663731,-1.126267,-0.575562,-0.01042,-0.993812,0.012558,-0.480721,-0.135848,-0.404801
136,0.661431,-1.128661,-0.557249,-0.017649,-0.995418,0.01818,-0.291923,-0.009933,-0.593599
137,0.65913,-1.121479,-0.567714,-0.001587,-0.98819,0.029424,-0.291923,0.556609,-0.719514
138,0.65913,-1.121479,-0.567714,0.001626,-1.00666,0.023802,-0.228891,-0.324646,-0.216004
139,0.661431,-1.123873,-0.572946,-0.003194,-1.000236,0.028619,-0.354806,-0.135848,-0.278886
140,0.663731,-1.126267,-0.559866,-0.005602,-0.998629,0.013362,-0.669518,0.115982,-0.656482
141,0.656829,-1.131054,-0.552017,-0.007209,-0.998629,0.027013,-0.480721,-0.387677,-0.908311
142,0.652228,-1.128661,-0.567714,-0.006405,-1.001038,0.035046,-0.795433,-0.513443,-0.719514
143,0.670633,-1.123873,-0.580795,-0.003996,-0.990598,0.014164,-0.480721,-0.261763,-0.404801
144,0.670633,-1.119086,-0.554633,-0.005602,-0.996221,0.021393,-0.228891,-0.072965,-0.530716
145,0.670633,-1.119086,-0.554633,0.004837,-1.003449,0.018982,-0.040093,-0.513443,-0.719514
146,0.666032,-1.121479,-0.578179,-0.0048,-0.996221,0.021393,-0.669518,-0.324646,-0.656482
147,0.663731,-1.119086,-0.559866,-0.005602,-1.000236,0.00774,-0.921348,-0.198731,-1.097109
148,0.654529,-1.133448,-0.596492,0.004035,-0.997827,0.023802,-0.606635,-0.513443,-0.341769
149,0.661431,-1.114298,-0.583411,-0.011224,-0.993007,0.002118,-0.291923,-0.45056,-0.656482
150,0.65913,-1.131054,-0.549401,0.003231,-0.992205,0.019786,-0.480721,-0.324646,-0.341769
151,0.65913,-1.131054,-0.549401,-0.003194,-0.998629,0.023802,-0.291923,-0.576475,-0.341769
152,0.661431,-1.128661,-0.565098,-0.001587,-1.000236,0.027013,-0.73255,-0.765273,-0.656482
153,0.661431,-1.135842,-0.567714,-0.003996,-0.993007,0.014966,-0.354806,-0.261763,-0.530716
154,0.668332,-1.131054,-0.554633,-0.007209,-0.993812,0.004527,-0.795433,-0.009933,-0.404801
155,0.65913,-1.123873,-0.57033,-0.000785,-0.998629,0.00774,-0.606635,-0.198731,-0.845429
156,0.670633,-1.131054,-0.562482,0.001626,-1.000236,0.033439,-0.480721,-0.324646,-0.656482
157,0.670633,-1.131054,-0.562482,-0.003194,-0.995418,0.014966,-0.543603,-0.324646,-0.908311
158,0.670633,-1.138236,-0.583411,-0.009618,-0.997023,0.010951,-0.669518,-0.261763,-0.845429
159,0.666032,-1.121479,-0.572946,-0.005602,-0.987385,0.027013,-0.606635,-0.324646,-0.467684
160,0.666032,-1.131054,-0.593876,-0.001587,-0.993007,0.00774,-0.73255,-0.513443,-0.845429
161,0.666032,-1.126267,-0.580795,-0.0048,-0.992205,0.013362,-0.606635,-0.198731,-0.593599
162,0.663731,-1.123873,-0.565098,-0.005602,-0.996221,0.010951,-0.480721,-0.324646,-0.404801
163,0.672934,-1.131054,-0.593876,-0.003194,-1.00666,0.038257,-0.480721,-0.009933,-0.782397
164,0.672934,-1.131054,-0.593876,0.001626,-0.998629,0.051108,-0.103125,-0.009933,-0.090089
165,0.663731,-1.133448,-0.567714,-0.006405,-0.993007,0.020588,-0.103125,-0.198731,-0.971194
166,0.666032,-1.135842,-0.583411,-0.0048,-0.993007,0.024604,-0.354806,-0.072965,-0.278886
167,0.666032,-1.126267,-0.557249,0.003231,-0.995418,0.011755,-1.173028,0.115982,-0.467684
168,0.663731,-1.143023,-0.578179,-0.006405,-1.001038,0.019786,-0.417838,-0.072965,-0.404801
169,0.65913,-1.131054,-0.567714,-0.014436,-0.997023,0.01818,-0.103125,-0.261763,-0.404801
170,0.65913,-1.131054,-0.567714,-0.017649,-0.984976,0.028619,-0.73255,-0.261763,-0.908311
171,0.668332,-1.138236,-0.546784,-0.005602,-0.990598,0.034241,-0.166008,-0.324646,-0.152972
172,0.65913,-1.135842,-0.57033,0.009657,-0.995418,0.011755,-0.103125,0.115982,-0.908311
173,0.663731,-1.128661,-0.575562,0.005642,-1.003449,0.035046,-0.669518,-0.324646,-0.090089
174,0.670633,-1.133448,-0.552017,-0.000785,-1.003449,0.010149,-0.795433,-0.135848,-0.593599
175,0.672934,-1.128661,-0.557249,-0.011224,-0.995418,0.03665,-0.354806,0.115982,-0.027057
176,0.672934,-1.128661,-0.557249,-0.016847,-0.993007,0.008542,-0.543603,0.05295,-0.530716
177,0.663731,-1.121479,-0.567714,0.004035,-0.997023,0.019786,0.337502,0.115982,-0.656482
178,0.666032,-1.131054,-0.59126,-0.008011,-0.994614,0.014966,-0.480721,0.115982,-0.593599
179,0.666032,-1.126267,-0.552017,0.003231,-0.996221,0.03665,-0.669518,-0.072965,-0.593599
180,0.668332,-1.131054,-0.549401,0.001626,-0.996221,0.029424,-0.795433,0.05295,-0.719514
181,0.663731,-1.133448,-0.559866,-0.01042,-0.994614,0.004527,-0.543603,-0.135848,-0.467684
182,0.661431,-1.135842,-0.562482,-0.005602,-1.001842,0.015771,-0.858316,-0.324646,-0.719514
183,0.661431,-1.135842,-0.562482,-0.003996,-1.004251,0.015771,-0.543603,-0.639358,-0.656482
184,0.666032,-1.138236,-0.586027,-0.008011,-0.993812,0.032635,0.085822,-0.513443,-0.216004
185,0.654529,-1.135842,-0.57033,-0.001587,-1.009069,0.046288,-0.606635,-0.324646,-0.845429
186,0.65913,-1.143023,-0.580795,-0.008011,-0.999434,0.039061,-0.858316,-0.513443,-0.656482
187,0.65913,-1.131054,-0.575562,0.005642,-0.999434,0.035046,-0.795433,0.05295,-0.404801
188,0.65913,-1.128661,-0.557249,0.008853,-0.995418,0.019786,-0.543603,-0.45056,-0.530716
189,0.65913,-1.128661,-0.557249,0.001626,-1.008267,0.039061,-0.669518,-0.135848,-0.404801
190,0.661431,-1.131054,-0.572946,-0.003996,-0.993007,0.026211,-0.480721,0.115982,-0.404801
191,0.656829,-1.128661,-0.567714,-0.006405,-0.991403,0.014164,-0.228891,0.367662,-0.278886
192,0.654529,-1.123873,-0.578179,-0.006405,-1.000236,0.014164,-0.291923,-0.198731,-0.782397
193,0.663731,-1.131054,-0.59126,-0.008011,-0.999434,0.015771,-0.166008,-0.324646,-0.467684
194,0.661431,-1.133448,-0.572946,0.007248,-1.005054,0.021393,-0.669518,-0.387677,-0.530716
195,0.670633,-1.121479,-0.57033,0.005642,-1.001038,0.03103,-0.606635,-0.576475,-0.404801
196,0.670633,-1.121479,-0.57033,-0.002389,-0.989796,0.024604,-0.480721,-0.198731,-0.467684
197,0.663731,-1.126267,-0.578179,-0.003194,-0.992205,0.01818,-0.669518,-0.45056,-0.656482
198,0.663731,-1.133448,-0.578179,0.004837,-1.005858,0.018982,-0.73255,-0.261763,-0.530716
199,0.668332,-1.128661,-0.578179,-0.005602,-0.991403,0.029424,-0.480721,-0.324646,-0.719514
200,0.663731,-1.135842,-0.604341,0.00002,-0.990598,0.022195,-0.166008,-0.135848,-0.656482
201,0.666032,-1.133448,-0.572946,0.002428,-0.997023,0.022997,-0.543603,-0.324646,-0.656482
202,0.666032,-1.133448,-0.572946,-0.006405,-0.98819,0.026211,-0.858316,0.178865,-0.593599
203,0.661431,-1.123873,-0.541552,-0.003194,-0.993812,0.015771,-0.228891,-0.261763,-0.278886
204,0.65913,-1.133448,-0.559866,-0.005602,-0.992205,0.027817,-0.291923,-0.324646,-0.152972
205,0.656829,-1.126267,-0.552017,-0.003996,-0.995418,0.027817,-0.417838,-0.324646,-0.467684
206,0.666032,-1.133448,-0.567714,0.003231,-0.98819,0.016573,-0.795433,-0.576475,-0.845429
207,0.661431,-1.143023,-0.57033,0.003231,-1.001842,0.014966,-0.606635,-0.198731,-1.160141
208,0.661431,-1.143023,-0.57033,-0.01042,-0.989796,0.028619,-0.73255,-0.072965,-0.530716
209,0.677535,-1.143023,-0.57033,-0.000785,-0.997827,0.01818,-0.606635,0.115982,-0.656482
210,0.666032,-1.133448,-0.565098,-0.008816,-0.992205,0.009346,-0.166008,-0.198731,-0.845429
211,0.663731,-1.140629,-0.552017,0.004837,-0.999434,0.012558,-0.417838,-0.135848,-0.719514
212,0.666032,-1.131054,-0.578179,-0.009618,-0.997827,0.034241,-0.291923,0.178865,-0.782397
213,0.661431,-1.133448,-0.554633,-0.000785,-0.988992,0.043879,-0.921348,-0.072965,-0.530716
214,0.663731,-1.138236,-0.552017,-0.007209,-1.000236,0.011755,-0.669518,-0.072965,-0.404801
215,0.663731,-1.138236,-0.552017,-0.008816,-0.999434,0.021393,-0.480721,-0.261763,-0.593599
216,0.65913,-1.138236,-0.541552,-0.008816,-0.995418,0.027013,-0.417838,-0.135848,-0.656482
217,0.666032,-1.138236,-0.583411,-0.007209,-1.001038,0.027817,0.085822,-0.576475,-1.097109
218,0.672934,-1.131054,-0.559866,-0.0048,-0.996221,0.003724,-0.291923,-0.324646,-0.782397
219,0.666032,-1.126267,-0.572946,0.00002,-0.996221,0.000511,-0.543603,-0.387677,-0.656482
220,0.652228,-1.131054,-0.572946,-0.001587,-1.001842,0.00774,-0.858316,-0.387677,-0.530716
221,0.652228,-1.131054,-0.572946,0.000822,-0.997827,0.014164,-0.921348,-0.261763,-0.593599
222,0.656829,-1.126267,-0.57033,0.004035,-1.005858,0.030226,-0.669518,-0.387677,-0.341769
223,0.656829,-1.135842,-0.57033,-0.001587,-1.003449,0.017377,-0.669518,-0.387677,-0.404801
224,0.661431,-1.126267,-0.572946,0.002428,-0.997827,0.028619,0.085822,-0.198731,-0.656482
225,0.654529,-1.138236,-0.57033,-0.003194,-0.987385,0.020588,-0.669518,-0.072965,-0.467684
226,0.65913,-1.131054,-0.575562,0.001626,-1.000236,0.035848,-0.795433,-0.009933,-0.845429
227,0.661431,-1.138236,-0.554633,-0.01524,-0.989796,0.009346,-0.921348,-0.324646,-0.467684
228,0.661431,-1.138236,-0.554633,-0.003996,-1.002645,0.017377,-0.858316,-0.576475,-1.223024
229,0.65913,-1.128661,-0.549401,-0.006405,-1.00666,0.024604,-0.166008,-0.261763,-0.908311
230,0.661431,-1.131054,-0.567714,-0.0048,-1.001842,-0.003504,-0.669518,-0.45056,-0.404801
231,0.656829,-1.121479,-0.572946,0.00002,-1.001842,0.029424,-0.166008,-0.639358,-0.656482
232,0.656829,-1.119086,-0.546784,-0.002389,-0.993812,0.010951,-0.480721,-0.45056,-0.530716
233,0.666032,-1.126267,-0.565098,-0.012831,-0.992205,0.026211,-1.047263,-0.072965,-0.090089
234,0.666032,-1.126267,-0.565098,-0.009618,-0.999434,0.013362,-0.858316,-0.135848,-0.278886
235,0.663731,-1.119086,-0.575562,0.004035,-0.997827,0.025408,-0.543603,0.178865,-0.530716
236,0.654529,-1.126267,-0.59126,0.006444,-0.995418,0.00292,-0.669518,-0.45056,-0.404801
237,0.656829,-1.131054,-0.578179,-0.002389,-0.993812,0.037455,-0.543603,-0.387677,-0.404801
238,0.661431,-1.133448,-0.586027,0.005642,-0.994614,0.035046,-0.417838,-0.198731,-0.216004
239,0.65913,-1.133448,-0.546784,-0.007209,-0.991403,-0.005111,-0.291923,0.115982,-0.782397
240,0.65913,-1.133448,-0.546784,-0.0048,-1.002645,0.020588,-0.480721,-0.513443,-0.593599
241,0.652228,-1.138236,-0.562482,0.000822,-0.987385,0.002118,-0.669518,-0.072965,-0.216004
242,0.666032,-1.128661,-0.586027,0.00002,-1.001842,0.022195,-0.606635,-0.198731,-0.530716
243,0.656829,-1.128661,-0.596492,-0.005602,-0.989796,0.003724,-0.73255,-0.324646,-0.467684
244,0.663731,-1.123873,-0.578179,-0.002389,-0.997023,0.019786,-0.228891,-0.45056,-0.656482
245,0.666032,-1.121479,-0.596492,-0.008816,-0.996221,0.010149,-0.228891,-0.324646,-1.034226
246,0.656829,-1.119086,-0.567714,-0.000785,-0.992205,0.014966,-0.984231,-0.45056,-0.656482
247,0.656829,-1.119086,-0.567714,0.00002,-0.992205,0.027013,-0.795433,-0.198731,-0.845429
248,0.670633,-1.126267,-0.586027,-0.000785,-0.994614,0.011755,-0.480721,0.178865,-0.593599
249,0.65913,-1.128661,-0.578179,-0.001587,-0.988992,0.022195,-0.417838,0.178865,-0.908311
250,0.652228,-1.131054,-0.601725,-0.003194,-1.000236,0.031833,-0.669518,-0.009933,-0.530716
251,0.668332,-1.128661,-0.578179,-0.009618,-0.993007,0.029424,-0.480721,-0.009933,-0.845429
252,0.65913,-1.126267,-0.567714,-0.0048,-0.998629,0.018982,-0.858316,-0.261763,-0.908311
253,0.65913,-1.126267,-0.567714,-0.000785,-0.988992,0.00774,-0.354806,-0.324646,-0.782397
254,0.672934,-1.123873,-0.562482,0.00002,-0.998629,0.015771,-0.73255,-0.072965,-0.656482
255,0.661431,-1.131054,-0.575562,-0.003996,-1.005054,0.012558,-0.291923,-0.765273,-0.782397
256,0.661431,-1.121479,-0.580795,-0.01042,-1.005054,0.021393,-0.166008,-0.135848,-0.656482
257,0.65913,-1.126267,-0.59126,-0.003996,-0.993812,0.009346,-0.417838,-0.135848,-0.467684
258,0.663731,-1.138236,-0.565098,-0.0048,-1.001038,0.022195,-0.480721,-0.135848,-0.467684
259,0.663731,-1.138236,-0.565098,0.009657,-0.997827,0.016573,-0.543603,-0.387677,-0.404801
260,0.666032,-1.123873,-0.578179,0.002428,-0.998629,0.025408,-0.291923,-0.135848,-0.278886
261,0.645326,-1.126267,-0.562482,0.00002,-0.987385,0.031833,-0.606635,-0.072965,-0.530716
262,0.663731,-1.123873,-0.565098,-0.002389,-1.007465,-0.009126,-0.291923,-0.135848,-0.467684
263,0.661431,-1.116692,-0.562482,-0.009618,-0.982567,0.025408,-0.103125,-0.009933,-0.719514
264,0.656829,-1.126267,-0.575562,0.001626,-0.991403,0.035046,-0.040093,-0.198731,-0.593599
265,0.656829,-1.121479,-0.57033,-0.0048,-0.993812,0.006133,-0.417838,-0.261763,-0.341769
266,0.656829,-1.121479,-0.57033,-0.006405,-1.004251,0.002118,-0.606635,0.05295,-0.656482
267,0.656829,-1.121479,-0.559866,-0.0048,-0.989796,0.016573,-0.669518,-0.198731,-0.216004
268,0.649927,-1.128661,-0.546784,-0.003996,-0.997023,0.042272,-0.166008,-0.261763,-0.467684
269,0.656829,-1.121479,-0.575562,-0.001587,-1.000236,0.017377,-0.228891,0.115982,-0.782397
270,0.661431,-1.111904,-0.546784,-0.01042,-0.992205,0.024604,-0.228891,-0.072965,-0.530716
271,0.661431,-1.119086,-0.562482,-0.002389,-0.994614,0.027817,-0.166008,-0.198731,-0.341769
272,0.661431,-1.119086,-0.562482,-0.003194,-0.997023,0.033439,-0.606635,-0.261763,-0.404801
273,0.661431,-1.128661,-0.565098,-0.012831,-0.990598,0.011755,-0.669518,-0.198731,-0.656482
274,0.654529,-1.133448,-0.583411,0.004837,-0.998629,0.009346,-0.669518,-0.009933,-0.719514
275,0.65913,-1.131054,-0.57033,0.002428,-1.003449,0.019786,-0.166008,-0.009933,-0.404801
276,0.649927,-1.131054,-0.565098,-0.007209,-1.001038,0.022195,-0.669518,-0.324646,-0.404801
277,0.652228,-1.131054,-0.567714,-0.001587,-0.993007,0.025408,-0.543603,-0.387677,0.035826
278,0.666032,-1.135842,-0.565098,-0.005602,-0.992205,0.008542,-0.040093,-0.324646,-0.278886
279,0.666032,-1.135842,-0.565098,-0.000785,-1.005858,0.015771,-1.047263,-0.261763,-0.593599
280,0.661431,-1.135842,-0.559866,-0.005602,-0.995418,0.022997,-0.543603,-0.45056,-0.530716
281,0.656829,-1.133448,-0.572946,-0.002389,-1.003449,0.01818,-0.543603,-0.072965,-0.593599
282,0.647627,-1.133448,-0.546784,0.001626,-0.997023,0.011755,-0.417838,0.05295,-0.404801
283,0.654529,-1.138236,-0.578179,0.004837,-0.998629,0.014164,0.085822,-0.45056,-0.782397
284,0.652228,-1.126267,-0.57033,0.002428,-1.001842,0.015771,-0.606635,-0.765273,-0.656482
285,0.652228,-1.126267,-0.57033,-0.002389,-0.995418,0.016573,-0.480721,-0.70239,-0.782397
286,0.663731,-1.121479,-0.552017,0.002428,-0.992205,0.00774,-0.795433,-0.135848,-0.782397
287,0.656829,-1.121479,-0.557249,-0.005602,-1.002645,0.024604,-1.173028,-0.387677,-0.530716
288,0.661431,-1.131054,-0.546784,-0.002389,-0.996221,0.037455,-0.858316,-0.198731,-0.971194
289,0.654529,-1.119086,-0.554633,-0.001587,-0.993007,0.008542,-0.291923,-0.072965,-0.845429
290,0.647627,-1.123873,-0.559866,-0.002389,-0.993007,0.021393,-0.669518,-0.198731,-0.467684
291,0.647627,-1.123873,-0.559866,-0.008816,-1.00666,0.009346,-0.73255,0.178865,-0.278886
292,0.661431,-1.126267,-0.580795,0.003231,-1.005054,0.020588,-0.543603,-0.324646,-0.467684
293,0.656829,-1.126267,-0.559866,0.004837,-1.001038,0.025408,-0.606635,-0.009933,-1.160141
294,0.654529,-1.119086,-0.57033,0.005642,-1.004251,0.027817,-0.228891,-0.135848,-0.908311
295,0.661431,-1.114298,-0.588643,-0.01042,-0.984976,0.034241,-0.606635,-0.135848,-0.971194
296,0.65913,-1.119086,-0.57033,-0.002389,-0.997023,0.025408,-0.291923,-0.45056,-0.530716
297,0.661431,-1.121479,-0.567714,-0.001587,-0.991403,0.032635,0.085822,-0.198731,-0.845429
298,0.661431,-1.121479,-0.567714,-0.005602,-0.993812,0.027013,-0.040093,-0.45056,-0.719514
299,0.654529,-1.119086,-0.565098,-0.01042,-0.993812,0.011755,-0.669518,-0.261763,-0.782397
300,0.656829,-1.133448,-0.575562,-0.009618,-0.993812,0.020588,-0.543603,-0.324646,-1.034226
301,0.661431,-1.116692,-0.580795,-0.01042,-0.999434,0.006133,-0.669518,-0.324646,-0.656482
302,0.654529,-1.128661,-0.586027,-0.003996,-1.005858,0.049501,-0.669518,-0.198731,-0.782397
303,0.65913,-1.119086,-0.557249,-0.003194,-0.997023,0.037455,-0.228891,-0.387677,-0.656482
304,0.65913,-1.119086,-0.557249,-0.012831,-0.999434,0.025408,-0.354806,-0.45056,-0.530716
305,0.652228,-1.128661,-0.562482,-0.007209,-0.988992,0.038257,-0.417838,-0.324646,-0.341769
306,0.666032,-1.133448,-0.57033,-0.018451,-1.001038,0.015771,-0.480721,-0.387677,-0.530716
307,0.656829,-1.123873,-0.541552,-0.005602,-1.001038,0.030226,-0.795433,0.05295,-0.467684
308,0.666032,-1.131054,-0.57033,-0.001587,-1.007465,0.033439,-0.354806,0.115982,-0.656482
309,0.656829,-1.126267,-0.546784,-0.002389,-0.997827,0.014164,-0.228891,-0.387677,-0.593599
310,0.661431,-1.131054,-0.554633,-0.001587,-1.001842,0.004527,0.085822,-0.198731,-0.593599
311,0.661431,-1.131054,-0.554633,0.002428,-1.000236,0.031833,-0.354806,-0.513443,-0.656482
312,0.654529,-1.126267,-0.575562,-0.013633,-0.992205,0.009346,-0.543603,-0.45056,-0.656482
313,0.654529,-1.123873,-0.586027,-0.0048,-1.003449,0.028619,-0.606635,0.178865,-0.719514
314,0.666032,-1.131054,-0.546784,0.00002,-0.993007,0.022997,-0.480721,-0.45056,-0.341769
315,0.654529,-1.121479,-0.57033,-0.003194,-0.997827,0.034241,-0.417838,-0.135848,-0.782397
316,0.65913,-1.128661,-0.559866,-0.0048,-1.000236,0.016573,-0.040093,-0.072965,-0.656482
317,0.65913,-1.128661,-0.559866,-0.002389,-0.997023,0.020588,-0.417838,-0.324646,-0.782397
318,0.656829,-1.123873,-0.562482,-0.005602,-0.993007,0.044681,-0.480721,-0.198731,-0.341769
319,0.668332,-1.121479,-0.586027,-0.003194,-0.989796,0.012558,-0.73255,-0.387677,-1.223024
320,0.656829,-1.128661,-0.565098,-0.003996,-0.995418,0.005331,-0.480721,-0.324646,-0.090089
321,0.649927,-1.114298,-0.596492,-0.008011,-0.999434,0.028619,-0.606635,-0.576475,-0.782397
322,0.666032,-1.126267,-0.59126,0.008051,-1.008267,0.020588,-0.228891,-0.324646,-0.404801
323,0.666032,-1.126267,-0.59126,-0.011224,-0.988992,0.038257,-0.228891,-0.198731,-0.404801
324,0.663731,-1.114298,-0.580795,0.001626,-0.998629,0.045486,-0.606635,-0.198731,-0.530716
325,0.65913,-1.121479,-0.59126,0.008051,-0.997023,0.006935,-0.606635,-0.072965,-0.656482
326,0.666032,-1.123873,-0.586027,-0.008816,-0.996221,0.028619,-0.858316,0.178865,-0.782397
327,0.668332,-1.119086,-0.552017,0.008051,-1.000236,0.024604,-0.543603,-0.198731,-0.593599
328,0.675234,-1.10951,-0.559866,-0.008011,-0.984174,0.017377,-0.354806,0.178865,-0.278886
329,0.65913,-1.104723,-0.588643,-0.011224,-0.990598,0.016573,-0.228891,-0.261763,-0.404801
330,0.65913,-1.104723,-0.588643,-0.003996,-0.997023,0.016573,-0.795433,-0.324646,-0.467684
331,0.649927,-1.121479,-0.575562,-0.007209,-1.010676,0.022195,0.02279,-0.198731,-0.782397
332,0.652228,-1.123873,-0.588643,-0.008011,-0.989796,0.023802,-0.669518,-0.324646,-0.656482
333,0.647627,-1.123873,-0.57033,-0.003194,-1.003449,0.020588,-0.73255,-0.009933,-0.404801
334,0.656829,-1.131054,-0.562482,0.004837,-0.999434,0.011755,-0.73255,-0.009933,-0.404801
335,0.652228,-1.131054,-0.565098,-0.0048,-0.996221,0.003724,-0.291923,0.05295,-0.404801
336,0.652228,-1.131054,-0.565098,0.005642,-1.007465,0.020588,0.085822,-0.135848,-0.341769
337,0.654529,-1.131054,-0.57033,0.004035,-1.000236,0.019786,-0.291923,-0.261763,-0.341769
338,0.672934,-1.126267,-0.580795,-0.005602,-0.984174,0.04147,-0.417838,-0.324646,-0.467684
339,0.652228,-1.123873,-0.57033,-0.007209,-0.989796,0.018982,-0.669518,-0.45056,-0.341769
340,0.656829,-1.128661,-0.586027,-0.000785,-0.997827,-0.009929,-0.606635,-0.324646,-0.530716
341,0.649927,-1.131054,-0.549401,-0.005602,-0.997827,0.009346,-0.480721,-0.072965,-0.782397
342,0.649927,-1.131054,-0.549401,-0.003996,-0.996221,0.014966,-0.417838,-0.513443,-0.719514
343,0.652228,-1.128661,-0.554633,-0.000785,-1.000236,0.016573,-0.228891,-0.198731,-0.782397
344,0.670633,-1.131054,-0.572946,-0.011224,-0.984976,0.022997,-0.417838,-0.135848,-0.971194
345,0.654529,-1.123873,-0.549401,-0.006405,-0.997827,0.032635,-0.166008,-0.072965,-0.593599
346,0.668332,-1.121479,-0.562482,-0.008011,-1.004251,0.009346,-0.417838,-0.198731,-0.593599
347,0.661431,-1.121479,-0.586027,-0.006405,-0.998629,0.016573,-0.606635,0.05295,-0.656482
348,0.663731,-1.126267,-0.559866,0.001626,-1.001038,0.030226,-0.166008,-0.009933,-0.152972
349,0.663731,-1.126267,-0.559866,0.008853,-1.000236,0.009346,-0.858316,0.115982,-0.782397
350,0.656829,-1.123873,-0.567714,0.00002,-0.988992,0.010149,0.148705,-0.45056,-0.719514
351,0.656829,-1.126267,-0.557249,-0.012027,-0.995418,0.024604,-0.291923,-0.387677,-0.467684
352,0.666032,-1.133448,-0.567714,-0.008816,-1.001842,0.019786,-0.480721,-0.135848,-0.845429
353,0.666032,-1.126267,-0.565098,-0.008011,-0.994614,0.027013,-0.480721,-0.009933,-0.656482
354,0.663731,-1.126267,-0.57033,-0.008816,-1.005054,0.016573,-0.417838,-0.324646,-0.845429
355,0.663731,-1.126267,-0.57033,0.002428,-0.997827,0.001313,-0.480721,0.05295,-0.404801
356,0.670633,-1.128661,-0.580795,-0.008816,-1.009873,0.037455,-0.103125,0.05295,-0.530716
357,0.65913,-1.121479,-0.586027,-0.020862,-0.987385,0.018982,0.211737,-0.198731,-0.971194
358,0.65913,-1.121479,-0.588643,0.000822,-1.008267,0.017377,-0.228891,-0.387677,-1.034226
359,0.663731,-1.126267,-0.586027,-0.0048,-1.008267,0.023802,-0.103125,-0.009933,-0.341769
360,0.661431,-1.126267,-0.601725,0.004035,-0.999434,0.019786,-0.480721,0.178865,-0.530716
361,0.661431,-1.121479,-0.57033,-0.003194,-0.998629,0.006133,-0.543603,-0.261763,-0.278886
362,0.661431,-1.121479,-0.57033,-0.006405,-1.004251,0.022195,-0.291923,-0.261763,-0.216004
363,0.661431,-1.135842,-0.572946,-0.002389,-0.991403,0.013362,-0.228891,0.05295,0.035826
364,0.666032,-1.131054,-0.580795,-0.002389,-0.991403,0.044681,-0.103125,-0.324646,-0.152972
365,0.661431,-1.126267,-0.583411,-0.002389,-0.98819,0.006935,-0.984231,-0.513443,-0.656482
366,0.654529,-1.126267,-0.588643,0.002428,-1.001038,0.012558,-0.606635,-0.324646,-1.097109
367,0.663731,-1.121479,-0.575562,-0.006405,-0.98819,0.035046,-0.73255,-0.324646,-0.467684
368,0.663731,-1.121479,-0.575562,-0.0048,-1.001038,0.008542,-0.543603,0.05295,-0.278886
369,0.654529,-1.131054,-0.57033,-0.008011,-0.992205,0.027817,-0.354806,-0.261763,-0.341769
370,0.666032,-1.128661,-0.554633,0.003231,-1.009873,0.011755,-0.417838,-0.009933,-0.467684
371,0.656829,-1.126267,-0.541552,-0.0048,-0.992205,0.022997,-0.103125,-0.324646,-0.530716
372,0.656829,-1.131054,-0.583411,-0.005602,-0.994614,0.035848,-0.480721,-0.198731,-0.341769
373,0.666032,-1.123873,-0.596492,0.000822,-1.01148,0.022195,-0.480721,-0.009933,-0.404801
374,0.666032,-1.123873,-0.596492,-0.001587,-1.000236,0.006133,-0.228891,-0.072965,-0.467684
375,0.656829,-1.116692,-0.565098,-0.008011,-0.996221,0.021393,0.02279,-0.198731,-0.404801
376,0.65913,-1.126267,-0.580795,0.003231,-0.999434,0.018982,-0.480721,-0.324646,-0.908311
377,0.666032,-1.114298,-0.567714,0.002428,-0.993812,0.006935,-0.291923,-0.198731,-0.908311
378,0.663731,-1.133448,-0.59126,-0.002389,-0.996221,0.016573,-0.543603,-0.009933,-0.404801
379,0.668332,-1.145417,-0.57033,-0.01042,-1.000236,0.023802,-0.543603,-0.261763,-0.467684
380,0.666032,-1.133448,-0.562482,-0.007209,-1.001842,0.005331,-0.858316,-0.45056,-0.530716
381,0.666032,-1.133448,-0.562482,0.007248,-1.010676,0.014164,-0.291923,-0.324646,-0.656482
382,0.656829,-1.128661,-0.575562,0.004837,-1.002645,0.01818,-0.103125,0.05295,-0.404801
383,0.649927,-1.131054,-0.557249,-0.002389,-1.00666,0.028619,-0.354806,-0.009933,-0.971194
384,0.654529,-1.123873,-0.580795,0.005642,-0.998629,0.039061,-0.543603,-0.45056,-0.467684
385,0.661431,-1.126267,-0.596492,-0.006405,-1.004251,0.006935,-0.291923,-0.387677,-0.971194
386,0.656829,-1.119086,-0.586027,0.000822,-1.005858,0.008542,-1.110146,-0.387677,-0.782397
387,0.656829,-1.119086,-0.586027,0.004837,-0.995418,0.026211,-0.543603,-0.261763,-0.530716
388,0.656829,-1.116692,-0.578179,0.004837,-0.997023,0.019786,-0.606635,-0.45056,-0.278886
389,0.649927,-1.126267,-0.541552,-0.012027,-0.991403,0.020588,-0.166008,-0.261763,-0.719514
390,0.656829,-1.119086,-0.583411,0.000822,-1.00666,0.026211,-0.417838,-0.387677,-0.719514
391,0.663731,-1.121479,-0.575562,-0.003996,-0.996221,0.016573,-0.795433,-0.198731,-0.341769
392,0.663731,-1.123873,-0.575562,-0.012027,-0.98819,0.038257,-0.543603,-0.261763,-0.467684
393,0.663731,-1.116692,-0.586027,0.004035,-1.000236,0.020588,-0.73255,-0.009933,-1.097109
394,0.663731,-1.116692,-0.586027,-0.007209,-0.991403,0.029424,-0.291923,-0.198731,-0.530716
395,0.65913,-1.123873,-0.588643,-0.011224,-0.987385,0.018982,-0.543603,0.115982,-0.467684
396,0.654529,-1.121479,-0.580795,0.003231,-0.995418,0.029424,0.02279,-0.198731,-0.719514
397,0.656829,-1.131054,-0.588643,-0.006405,-0.988992,0.024604,-0.166008,-0.261763,-0.719514
398,0.663731,-1.126267,-0.575562,-0.0048,-0.990598,0.019786,-0.354806,-0.324646,-1.034226
399,0.656829,-1.131054,-0.601725,-0.001587,-0.999434,0.013362,-0.543603,-0.009933,-0.845429
400,0.656829,-1.131054,-0.601725,-0.01042,-0.997827,0.00292,-0.480721,0.430694,-0.782397
401,0.668332,-1.138236,-0.583411,0.004837,-1.00666,0.025408,-0.795433,-0.639358,-0.278886
402,0.666032,-1.121479,-0.580795,-0.006405,-1.001038,0.022997,-0.291923,-0.324646,-0.216004
403,0.668332,-1.128661,-0.580795,-0.002389,-0.993812,0.005331,-0.354806,-0.072965,-0.656482
404,0.672934,-1.126267,-0.578179,-0.0048,-1.007465,0.021393,-0.040093,-0.198731,-0.216004
405,0.668332,-1.121479,-0.565098,0.004035,-0.993007,0.039061,-0.795433,0.178865,-0.782397
406,0.668332,-1.121479,-0.565098,0.000822,-0.998629,-0.001095,-0.669518,-0.072965,-0.090089
407,0.656829,-1.138236,-0.572946,-0.001587,-1.008267,0.015771,-0.921348,0.115982,-0.404801
408,0.663731,-1.128661,-0.578179,-0.011224,-1.005858,0.006935,-0.480721,0.178865,-0.404801
409,0.663731,-1.126267,-0.575562,0.004035,-0.995418,0.037455,-0.480721,-0.072965,-0.593599
410,0.666032,-1.123873,-0.549401,0.000822,-1.004251,0.010951,-0.291923,-0.198731,-0.656482
411,0.661431,-1.119086,-0.572946,-0.012831,-1.002645,0.038257,-0.417838,-0.009933,-0.530716
412,0.654529,-1.126267,-0.567714,-0.007209,-0.998629,0.015771,-0.921348,-0.009933,-0.656482
413,0.654529,-1.126267,-0.567714,-0.005602,-1.001842,0.03665,-1.110146,-0.576475,-0.530716
414,0.666032,-1.128661,-0.596492,-0.001587,-0.998629,0.020588,-1.110146,-0.387677,-0.216004
415,0.670633,-1.119086,-0.567714,-0.003996,-0.991403,0.044681,-0.606635,0.05295,-0.530716
416,0.666032,-1.119086,-0.546784,-0.01042,-0.992205,0.024604,-0.228891,-0.198731,-1.034226
417,0.677535,-1.114298,-0.562482,-0.002389,-1.005858,0.030226,-0.040093,-0.198731,-0.845429
418,0.652228,-1.123873,-0.538936,-0.002389,-0.991403,0.021393,-0.103125,-0.513443,-1.034226
419,0.652228,-1.123873,-0.538936,0.000822,-0.994614,0.032635,-0.669518,-0.072965,-0.404801
420,0.668332,-1.128661,-0.557249,-0.002389,-0.993812,0.046288,-0.984231,-0.198731,-1.097109
421,0.65913,-1.123873,-0.544168,0.008853,-0.988992,0.00774,-0.921348,0.115982,-0.719514
422,0.65913,-1.140629,-0.565098,0.00002,-1.00666,0.019786,-0.921348,-0.135848,-0.530716
423,0.65913,-1.135842,-0.565098,-0.001587,-0.994614,0.027817,0.148705,-0.513443,-0.719514
424,0.656829,-1.135842,-0.567714,0.006444,-0.990598,0.014966,-0.228891,-0.198731,-0.027057
425,0.670633,-1.131054,-0.565098,-0.007209,-0.994614,0.011755,-0.354806,-0.072965,-0.467684
426,0.670633,-1.131054,-0.565098,-0.005602,-0.990598,-0.001095,-0.858316,-0.072965,-0.845429
427,0.654529,-1.135842,-0.567714,0.002428,-1.001038,0.012558,-0.73255,-0.072965,-0.719514
428,0.656829,-1.131054,-0.578179,-0.002389,-0.994614,0.015771,-0.543603,-0.387677,-0.027057
429,0.649927,-1.121479,-0.593876,-0.009618,-0.992205,0.03665,0.02279,0.115982,-0.782397
430,0.670633,-1.135842,-0.57033,0.007248,-0.998629,0.013362,-0.166008,-0.639358,-1.097109
431,0.666032,-1.121479,-0.580795,0.00002,-0.996221,0.011755,-0.291923,-0.639358,-0.845429
432,0.666032,-1.121479,-0.580795,0.008853,-0.998629,0.014966,-0.354806,-0.576475,-0.971194
433,0.666032,-1.140629,-0.580795,-0.000785,-1.004251,0.00774,-0.669518,-0.45056,-0.908311
434,0.661431,-1.131054,-0.565098,0.000822,-1.000236,0.029424,-0.291923,-0.198731,-0.656482
435,0.652228,-1.135842,-0.580795,0.003231,-1.001842,0.009346,-0.858316,-0.072965,-0.971194
436,0.666032,-1.140629,-0.549401,0.009657,-1.012282,0.020588,-0.480721,-0.387677,-0.278886
437,0.663731,-1.138236,-0.583411,-0.000785,-1.004251,0.028619,-0.480721,-0.513443,-0.656482
438,0.663731,-1.138236,-0.583411,0.003231,-1.001038,0.022997,-0.291923,-0.387677,-0.530716
439,0.670633,-1.135842,-0.57033,0.006444,-1.008267,0.04147,-0.543603,-0.324646,-0.656482
440,0.672934,-1.140629,-0.580795,-0.017649,-0.994614,0.019786,-0.543603,-0.261763,-0.341769
441,0.663731,-1.131054,-0.586027,0.001626,-1.013889,0.017377,-0.606635,-0.135848,-0.404801
442,0.661431,-1.128661,-0.57033,-0.013633,-1.016298,0.019786,-0.543603,-0.198731,-0.908311
443,0.672934,-1.126267,-0.57033,-0.009618,-1.001842,0.008542,-0.040093,-0.072965,-0.719514
444,0.666032,-1.133448,-0.588643,-0.003996,-0.990598,0.034241,-0.166008,-0.009933,-0.530716
445,0.666032,-1.133448,-0.588643,-0.008011,-0.988992,0.006935,-1.110146,-0.135848,-0.404801
446,0.663731,-1.126267,-0.578179,0.001626,-0.996221,0.033439,-1.173028,-0.765273,-0.719514
447,0.666032,-1.131054,-0.57033,-0.009618,-0.997827,0.038257,-1.047263,-0.072965,-1.097109
448,0.666032,-1.128661,-0.559866,-0.003996,-1.008267,0.019786,-0.291923,-0.324646,-0.719514
449,0.670633,-1.131054,-0.575562,-0.01042,-0.997023,0.006935,0.085822,-0.324646,-0.719514
450,0.672934,-1.135842,-0.549401,0.00002,-0.993007,0.029424,0.085822,-0.261763,-0.719514
451,0.672934,-1.135842,-0.549401,-0.0048,-0.985781,0.022195,-0.669518,-0.009933,-0.530716
452,0.677535,-1.128661,-0.546784,0.00002,-0.995418,0.022997,-0.480721,-0.324646,-0.908311
453,0.670633,-1.131054,-0.565098,0.000822,-1.003449,0.017377,-0.984231,0.115982,-0.656482
454,0.677535,-1.126267,-0.572946,-0.005602,-0.985781,0.021393,-1.110146,0.05295,-0.341769
455,0.679836,-1.126267,-0.546784,0.000822,-0.999434,0.026211,-0.73255,-0.198731,-1.223024
456,0.668332,-1.126267,-0.562482,0.00002,-0.993007,0.026211,-0.166008,-0.513443,-1.097109
457,0.666032,-1.123873,-0.53632,-0.008816,-0.997023,0.021393,-0.354806,-0.324646,-0.530716
458,0.666032,-1.123873,-0.53632,-0.01042,-0.989796,0.011755,0.02279,-0.198731,-0.278886
459,0.666032,-1.119086,-0.578179,0.004837,-0.992205,0.024604,-0.858316,-0.198731,-0.152972
460,0.65913,-1.121479,-0.578179,-0.000785,-0.992205,0.014966,-0.669518,-0.135848,-0.341769
461,0.656829,-1.123873,-0.567714,0.002428,-1.001842,0.031833,-0.73255,-0.45056,-0.782397
462,0.65913,-1.128661,-0.572946,-0.002389,-1.009873,0.011755,-0.480721,0.241748,-0.152972
463,0.670633,-1.131054,-0.565098,-0.014436,-0.993007,0.021393,0.085822,-0.261763,-0.719514
464,0.670633,-1.131054,-0.565098,-0.000785,-1.004251,0.038257,-0.103125,-0.387677,-0.467684
465,0.666032,-1.133448,-0.572946,-0.002389,-1.008267,0.018982,-0.291923,-0.324646,-0.719514
466,0.663731,-1.126267,-0.599108,-0.011224,-0.994614,0.017377,-0.480721,-0.324646,-0.530716
467,0.668332,-1.128661,-0.567714,-0.0048,-1.009069,0.011755,-0.543603,-0.324646,-0.782397
468,0.65913,-1.138236,-0.575562,0.008051,-1.004251,0.022997,-1.110146,-0.891188,-0.090089
469,0.661431,-1.126267,-0.578179,0.003231,-0.995418,0.005331,-0.417838,-0.261763,-0.908311
470,0.661431,-1.126267,-0.578179,0.009657,-1.009873,0.023802,0.274619,-0.135848,-0.782397
471,0.652228,-1.128661,-0.546784,0.003231,-1.018707,-0.003504,0.148705,0.178865,-0.152972
472,0.654529,-1.128661,-0.588643,-0.016847,-1.001038,0.028619,-0.543603,0.178865,-0.530716
473,0.65913,-1.121479,-0.544168,-0.012027,-1.019511,0.014164,-0.795433,0.05295,-0.341769
474,0.663731,-1.126267,-0.580795,-0.01042,-0.998629,0.028619,-0.984231,-0.324646,-0.027057
475,0.668332,-1.128661,-0.578179,0.001626,-1.012282,0.010149,-0.040093,-0.261763,-0.278886
476,0.661431,-1.128661,-0.580795,-0.008011,-0.993007,0.03103,-0.103125,-0.198731,-0.719514
477,0.661431,-1.128661,-0.580795,-0.001587,-1.000236,0.016573,-0.354806,-0.198731,-0.908311
478,0.668332,-1.123873,-0.57033,-0.008816,-1.008267,0.01818,-0.228891,-0.135848,-1.348939
479,0.666032,-1.131054,-0.593876,0.000822,-1.001842,0.017377,-0.669518,-0.387677,-0.341769
480,0.65913,-1.131054,-0.575562,0.004035,-0.995418,0.015771,-0.669518,-0.387677,-0.404801
481,0.65913,-1.121479,-0.59126,-0.008011,-0.97293,0.047894,-1.173028,-0.387677,-0.593599
482,0.663731,-1.126267,-0.586027,0.001626,-0.994614,0.024604,-0.921348,-0.261763,-0.782397
483,0.663731,-1.126267,-0.586027,-0.001587,-0.996221,0.031833,-0.228891,0.115982,-0.341769
484,0.656829,-1.119086,-0.57033,-0.012831,-0.996221,0.035046,-0.040093,-0.261763,-0.341769
485,0.654529,-1.126267,-0.586027,0.000822,-1.007465,0.030226,-0.354806,-0.387677,-0.152972
486,0.666032,-1.131054,-0.575562,-0.003194,-0.991403,0.014164,-0.73255,-0.324646,-0.908311
487,0.661431,-1.128661,-0.604341,-0.0048,-0.985781,0.029424,-1.110146,-0.513443,-1.097109
488,0.663731,-1.126267,-0.612189,-0.016042,-0.993812,0.016573,-0.417838,-0.387677,-0.656482
489,0.654529,-1.128661,-0.586027,-0.007209,-1.003449,0.03103,-0.543603,-0.261763,-0.845429
490,0.654529,-1.128661,-0.586027,-0.008816,-0.997827,0.024604,-0.103125,-0.45056,-0.719514
491,0.65913,-1.126267,-0.586027,-0.003996,-1.001038,0.020588,-0.480721,-0.072965,-0.908311
492,0.670633,-1.131054,-0.59126,-0.0048,-0.997023,0.022997,-0.354806,-0.009933,-0.404801
493,0.666032,-1.133448,-0.588643,-0.003996,-0.995418,0.024604,-0.921348,-0.135848,-0.593599
494,0.670633,-1.128661,-0.578179,0.004837,-0.982567,-0.005913,-1.110146,-0.891188,0.224624
495,0.656829,-1.123873,-0.593876,-0.006405,-0.990598,0.038257,-0.228891,-0.513443,-0.719514
496,0.656829,-1.123873,-0.593876,0.008051,-1.005054,0.015771,0.589332,-0.513443,-0.656482
497,0.656829,-1.123873,-0.572946,-0.000785,-0.991403,0.008542,-0.228891,-0.324646,-0.782397
498,0.663731,-1.128661,-0.59126,-0.008011,-0.992205,0.030226,-0.291923,-0.45056,-0.404801
499,0.65913,-1.126267,-0.572946,0.002428,-0.997023,0.019786,-0.606635,-0.261763,-0.467684
500,0.656829,-1.133448,-0.586027,-0.009618,-0.999434,0.011755,-0.858316,0.178865,-1.097109
501,0.661431,-1.128661,-0.588643,-0.011224,-0.996221,0.009346,-0.606635,-0.135848,-0.782397
502,0.661431,-1.128661,-0.588643,-0.000785,-0.995418,0.022997,0.085822,0.05295,-0.530716
503,0.654529,-1.121479,-0.583411,0.002428,-0.992205,0.035046,0.274619,-0.576475,-0.908311
504,0.666032,-1.126267,-0.578179,-0.012831,-1.005054,0.029424,-0.040093,-0.387677,-0.656482
505,0.675234,-1.126267,-0.578179,-0.012027,-0.992205,0.004527,-0.291923,-0.513443,-0.593599
506,0.661431,-1.114298,-0.575562,-0.001587,-0.998629,0.002118,-0.921348,-0.45056,-0.341769
507,0.663731,-1.119086,-0.567714,0.03375,-0.970521,0.058334,3.29583,-3.534803,-3.300097
508,0.656829,-1.119086,-0.565098,0.006444,-1.06609,0.054319,7.198444,-8.633235,-0.908311
509,0.656829,-1.119086,-0.565098,-0.016847,-1.04521,0.052714,3.232947,-8.822033,0.791166
510,0.656829,-1.119086,-0.578179,-0.057001,-1.063681,0.025408,-0.543603,-5.045483,8.596096
511,0.666032,-1.121479,-0.567714,-0.061017,-0.951246,-0.034826,-5.705068,-5.737791,-5.566116
512,0.65913,-1.123873,-0.565098,0.019295,-0.944019,0.005331,-12.125233,-0.513443,-6.321457
513,0.65913,-1.111904,-0.612189,0.029734,-1.008267,-0.035628,0.02279,-6.052503,1.042996
514,0.652228,-1.121479,-0.583411,-0.01524,-1.025935,0.004527,10.408452,-6.178418,4.378919
515,0.652228,-1.121479,-0.583411,-0.022469,-1.010676,0.051108,10.786197,-7.059673,-0.278886
516,0.654529,-1.126267,-0.583411,-0.011224,-0.958475,0.074396,3.484776,-9.954967,-4.496064
517,0.654529,-1.126267,-0.567714,0.035356,-0.974537,0.021393,-6.900886,-14.423975,-1.600768
518,0.668332,-1.116692,-0.554633,-0.007209,-1.003449,0.010149,-10.299841,-17.31942,1.987133
519,0.649927,-1.126267,-0.575562,-0.020862,-1.015495,-0.013142,-6.145695,-17.382303,0.728283
520,0.656829,-1.126267,-0.617422,-0.008011,-1.005858,0.008542,2.729437,-17.948845,-2.104279
521,0.656829,-1.126267,-0.617422,0.008853,-0.990598,0.010149,6.569019,-20.592461,0.035826
522,0.643025,-1.123873,-0.580795,-0.01042,-0.993007,0.048697,3.925404,-21.033087,1.861218
523,0.643025,-1.128661,-0.588643,-0.008011,-1.001038,0.023802,-0.417838,-19.522408,0.665251
524,0.647627,-1.123873,-0.59126,-0.0048,-0.998629,0.018982,-5.01261,-14.927486,-1.852449
525,0.640725,-1.119086,-0.588643,0.004035,-1.005858,0.014966,-4.823813,-14.235177,-1.223024
526,0.636124,-1.133448,-0.599108,-0.016042,-0.989796,0.014966,-1.613656,-17.697016,0.224624
527,0.638424,-1.123873,-0.578179,-0.006405,-1.00666,0.013362,1.533469,-18.892982,0.413422
528,0.638424,-1.123873,-0.578179,-0.008816,-1.004251,0.012558,3.358862,-21.347799,-0.656482
529,0.633823,-1.128661,-0.57033,-0.014436,-0.970521,0.047894,1.407555,-27.13854,-0.467684
530,0.638424,-1.133448,-0.580795,-0.002389,-1.000236,0.050303,-3.313133,-31.418747,0.350539
531,0.620019,-1.116692,-0.552017,-0.011224,-0.987385,0.011755,-3.376165,-34.502991,-0.719514
532,0.62462,-1.135842,-0.572946,-0.008816,-1.005858,-0.002702,-2.683708,-27.893879,-1.600768
533,0.617719,-1.123873,-0.599108,0.002428,-0.998629,0.001313,-0.166008,-21.599628,-0.027057
534,0.617719,-1.123873,-0.599108,-0.002389,-0.976945,0.014164,1.722267,-22.606649,0.728283
535,0.615418,-1.128661,-0.586027,-0.011224,-0.986583,0.023802,1.218757,-27.13854,0.602368
536,0.615418,-1.131054,-0.59126,-0.008011,-0.996221,0.033439,0.148705,-33.244141,-0.719514
537,0.608516,-1.126267,-0.588643,-0.007209,-1.013085,0.008542,-0.858316,-38.908966,-0.216004
538,0.610817,-1.133448,-0.557249,0.002428,-1.005054,0.027013,-2.872506,-41.615616,0.979964
539,0.599314,-1.135842,-0.567714,-0.001587,-0.995418,0.026211,-2.180198,-41.804413,0.350539
540,0.603915,-1.133448,-0.57033,-0.003996,-0.998629,0.004527,-1.550773,-42.874466,-0.090089
541,0.603915,-1.133448,-0.57033,0.008051,-1.008267,-0.004307,2.351692,-40.671478,-0.719514
542,0.58551,-1.123873,-0.562482,-0.002389,-1.019511,0.038257,1.344672,-43.692688,1.924101
543,0.578608,-1.119086,-0.562482,0.008051,-0.994614,-0.005913,-0.040093,-38.153625,0.979964
544,0.578608,-1.128661,-0.586027,0.001626,-0.991403,0.024604,-1.550773,-32.42577,-1.223024
545,0.574007,-1.128661,-0.578179,0.001626,-1.00666,0.033439,-3.313133,-31.544666,-0.341769
546,0.560203,-1.121479,-0.562482,0.008853,-1.004251,0.009346,-2.809623,-31.544666,1.357708
547,0.560203,-1.121479,-0.562482,0.000822,-0.997023,0.028619,0.211737,-31.859377,0.413422
548,0.562503,-1.131054,-0.586027,-0.006405,-0.986583,-0.001898,0.715247,-33.18111,-0.782397
549,0.567105,-1.128661,-0.583411,-0.018451,-0.991403,0.043879,-0.228891,-32.42577,-0.090089
550,0.560203,-1.135842,-0.557249,0.00002,-1.000236,0.004527,-2.243081,-42.433838,1.420591
551,0.551,-1.121479,-0.557249,0.004837,-1.018707,0.045486,-2.432028,-46.147503,0.917081
552,0.546399,-1.123873,-0.559866,-0.003996,-1.014691,0.015771,-1.676688,-46.462215,0.287656
553,0.546399,-1.123873,-0.559866,0.007248,-0.999434,0.002118,-1.173028,-46.651016,0.854049
554,0.539497,-1.119086,-0.546784,0.007248,-0.980961,0.004527,0.77813,-46.336304,1.924101
555,0.532595,-1.126267,-0.559866,-0.012831,-1.001842,0.018982,0.589332,-46.651016,0.161741
556,0.534896,-1.138236,-0.567714,-0.003996,-1.012282,0.031833,-2.117315,-51.56065,0.413422
557,0.518792,-1.135842,-0.580795,-0.003996,-1.001038,0.03665,-1.739571,-53.008297,0.979964
558,0.51189,-1.138236,-0.565098,0.007248,-1.002645,0.035046,0.085822,-57.792015,2.238814
559,0.509589,-1.135842,-0.583411,-0.006405,-1.013889,0.033439,-1.23606,-59.239815,1.357708
560,0.509589,-1.135842,-0.583411,-0.012027,-0.98819,0.043879,-1.110146,-56.973793,0.098709
561,0.495785,-1.145417,-0.580795,0.032143,-1.002645,0.00292,-0.480721,-56.092541,1.357708
562,0.488883,-1.138236,-0.578179,-0.006405,-0.995418,0.027013,-1.9914,-50.805309,0.728283
563,0.479681,-1.140629,-0.578179,0.00002,-0.997023,-0.002702,-1.928368,-46.525101,0.665251
564,0.470478,-1.138236,-0.575562,-0.007209,-0.992205,0.010951,-1.739571,-44.070431,0.224624
565,0.470478,-1.140629,-0.588643,0.006444,-0.997827,0.039863,-0.103125,-40.986191,0.791166
566,0.470478,-1.140629,-0.588643,0.009657,-0.990598,0.011755,-0.291923,-45.077454,0.917081
567,0.472779,-1.140629,-0.599108,-0.011224,-0.993007,0.017377,-0.291923,-41.300903,0.917081
568,0.463577,-1.133448,-0.578179,-0.012831,-1.000236,0.023802,-1.23606,-37.398437,0.098709
569,0.447472,-1.143023,-0.583411,0.010459,-1.013889,0.017377,-1.550773,-38.279541,0.413422
570,0.445171,-1.145417,-0.583411,0.007248,-0.997023,0.014164,-1.550773,-37.146606,0.728283
571,0.44057,-1.133448,-0.586027,-0.013633,-0.981765,-0.003504,-1.23606,-39.349594,0.350539
572,0.442871,-1.128661,-0.593876,-0.017649,-0.984174,0.027817,-0.669518,-41.4897,-0.656482
573,0.442871,-1.128661,-0.593876,0.032948,-1.005054,0.030226,0.085822,-36.894775,0.098709
574,0.424466,-1.140629,-0.580795,-0.01042,-0.991403,0.039061,-0.795433,-32.740482,0.539336
575,0.426767,-1.131054,-0.572946,-0.007209,-1.014691,0.000511,-1.613656,-31.292837,1.483474
576,0.422165,-1.138236,-0.575562,-0.012027,-1.009069,0.008542,-1.110146,-31.733461,-0.845429
577,0.419865,-1.140629,-0.541552,0.005642,-1.017904,0.034241,-2.306113,-32.111057,-0.593599
578,0.410662,-1.138236,-0.557249,-0.008816,-0.98337,0.047092,-0.795433,-35.258331,0.287656
579,0.410662,-1.138236,-0.557249,0.014475,-0.998629,0.006935,-0.984231,-37.083725,1.483474
580,0.408361,-1.133448,-0.588643,-0.005602,-0.999434,0.025408,-0.103125,-34.502991,0.098709
581,0.412963,-1.140629,-0.557249,0.008853,-1.01148,0.032635,-0.291923,-32.174091,0.161741
582,0.412963,-1.133448,-0.578179,-0.003996,-1.005054,0.047092,-1.550773,-31.229952,0.287656
583,0.406061,-1.133448,-0.57033,-0.007209,-0.97775,0.03665,-1.865485,-32.236973,0.098709
584,0.399159,-1.143023,-0.538936,0.009657,-0.997023,0.029424,-1.298943,-33.810535,-0.593599
585,0.399159,-1.143023,-0.538936,0.014475,-0.995418,0.006935,-0.669518,-28.271624,-0.216004
586,0.392257,-1.135842,-0.557249,-0.000785,-1.008267,0.023802,-0.354806,-20.466545,0.413422
587,0.387656,-1.138236,-0.552017,-0.003194,-0.999434,0.022997,-0.291923,-17.193504,0.350539
588,0.383055,-1.145417,-0.552017,-0.005602,-0.988992,0.039863,0.085822,-14.927486,-0.216004
589,0.380754,-1.131054,-0.565098,-0.008816,-0.997827,0.033439,-0.669518,-13.920465,-1.474854
590,0.394558,-1.135842,-0.544168,0.007248,-0.996221,0.028619,-1.298943,-17.822929,-0.341769
591,0.383055,-1.133448,-0.562482,-0.001587,-0.984976,0.013362,-1.613656,-19.774237,-0.341769
592,0.383055,-1.133448,-0.562482,-0.005602,-1.005858,0.051108,-1.424858,-20.466545,-1.600768
593,0.380754,-1.140629,-0.549401,0.013673,-1.001842,0.020588,-0.858316,-21.410683,-0.404801
594,0.373852,-1.140629,-0.562482,0.007248,-0.989796,0.023802,-0.858316,-21.221886,-0.404801
595,0.371551,-1.143023,-0.557249,-0.007209,-0.993812,0.027013,-0.984231,-20.34063,-0.341769
596,0.36695,-1.143023,-0.557249,-0.000785,-0.993007,0.034241,-0.921348,-22.040108,0.224624
597,0.383055,-1.133448,-0.575562,0.009657,-0.996221,0.027817,-0.480721,-23.865499,-0.152972
598,0.383055,-1.133448,-0.575562,0.005642,-0.994614,0.011755,-1.110146,-24.180212,-0.530716
599,0.373852,-1.133448,-0.565098,-0.003194,-1.012282,0.006133,-1.487741,-25.942722,-0.152972
600,0.380754,-1.143023,-0.559866,-0.003194,-0.995418,0.030226,-0.795433,-23.236074,-0.152972
601,0.369251,-1.145417,-0.557249,-0.000785,-1.010676,0.022195,-0.354806,-24.872669,0.035826
602,0.360048,-1.140629,-0.562482,0.005642,-1.001842,0.055123,-0.166008,-24.872669,0.413422
603,0.36465,-1.140629,-0.544168,0.011264,-0.993812,0.04147,0.148705,-25.942722,0.350539
604,0.36465,-1.140629,-0.544168,0.004837,-1.012282,0.019786,-1.047263,-30.222782,0.476453
605,0.36465,-1.138236,-0.562482,-0.01042,-0.984976,0.014164,-1.739571,-31.355865,-0.090089
606,0.346245,-1.135842,-0.562482,0.01849,-1.012282,0.002118,-2.368996,-28.963934,0.098709
607,0.348545,-1.145417,-0.549401,0.005642,-0.997827,0.010951,-1.110146,-28.963934,0.602368
608,0.343944,-1.150205,-0.546784,0.014475,-0.998629,0.026211,-0.354806,-28.334507,0.287656
609,0.355447,-1.135842,-0.538936,0.00002,-1.005858,0.010951,0.148705,-27.767965,0.350539
610,0.339343,-1.152598,-0.559866,0.004035,-1.007465,0.021393,-0.606635,-26.509115,-0.278886
611,0.339343,-1.152598,-0.559866,0.001626,-1.005054,0.037455,-0.921348,-21.033087,-0.152972
612,0.348545,-1.152598,-0.538936,-0.005602,-0.990598,0.03103,-1.424858,-24.557957,-0.404801
613,0.325539,-1.145417,-0.53632,-0.01042,-0.999434,0.024604,-1.298943,-28.901047,-0.656482
614,0.327839,-1.145417,-0.523239,-0.003996,-0.993812,0.030226,-0.921348,-32.551685,-0.467684
615,0.318637,-1.147811,-0.546784,0.009657,-1.003449,0.029424,-0.543603,-32.362888,0.161741
616,0.316336,-1.152598,-0.507541,0.003231,-1.008267,0.003724,-0.921348,-36.831894,0.224624
617,0.316336,-1.152598,-0.507541,-0.006405,-1.012282,0.021393,-1.550773,-40.986191,0.098709
618,0.325539,-1.152598,-0.518006,-0.01042,-0.981765,0.027013,-1.298943,-43.566772,-0.656482
619,0.307134,-1.157386,-0.531087,-0.003996,-1.008267,0.06235,-2.74674,-49.168865,-0.278886
620,0.316336,-1.138236,-0.497077,0.006444,-1.000236,0.035046,-1.361975,-50.175884,1.168761
621,0.307134,-1.143023,-0.523239,0.005642,-0.997827,0.004527,0.02279,-49.294628,0.602368
622,0.300232,-1.138236,-0.520622,0.008853,-1.013889,0.022195,-0.480721,-49.105831,1.294676
623,0.309435,-1.143023,-0.525855,0.004837,-0.979354,0.029424,-0.606635,-46.525101,0.287656
624,0.309435,-1.143023,-0.525855,0.004035,-0.997827,0.047092,-1.739571,-50.049969,0.728283
625,0.29333,-1.145417,-0.518006,-0.006405,-1.004251,0.01818,-1.550773,-51.371853,0.728283
626,0.281827,-1.140629,-0.523239,0.012066,-1.012282,0.035848,-2.117315,-48.413525,1.672421
627,0.279526,-1.145417,-0.538936,0.004837,-1.000236,-0.005111,-0.040093,-47.343472,0.791166
628,0.270324,-1.152598,-0.507541,-0.007209,-1.009069,0.028619,-0.417838,-43.377975,1.546506
629,0.25652,-1.152598,-0.499693,0.007248,-1.009873,0.010149,-2.368996,-37.587234,0.098709
630,0.25652,-1.152598,-0.499693,0.020097,-1.000236,-0.005111,-2.243081,-26.3832,-1.285907
631,0.25652,-1.152598,-0.489228,0.015279,-1.005054,0.006133,-2.683708,-23.865499,0.350539
632,0.258821,-1.145417,-0.483996,-0.000785,-0.993812,0.015771,-1.298943,-24.054298,-1.034226
633,0.258821,-1.147811,-0.478763,0.003231,-0.985781,0.034241,-0.228891,-20.529577,-1.285907
634,0.254219,-1.147811,-0.502309,0.002428,-0.997827,0.016573,0.526449,-20.34063,0.035826
635,0.254219,-1.150205,-0.478763,0.008853,-1.002645,0.00774,1.029959,-21.347799,1.609389
636,0.254219,-1.150205,-0.478763,0.016081,-1.009069,0.035848,0.085822,-27.13854,1.105878
637,0.240416,-1.150205,-0.489228,-0.001587,-0.994614,0.009346,0.148705,-29.530474,0.224624
638,0.247318,-1.147811,-0.499693,-0.006405,-0.988992,0.025408,-1.298943,-32.740482,-0.971194
639,0.242716,-1.157386,-0.502309,-0.001587,-0.978552,0.003724,-0.984231,-26.320316,-1.474854
640,0.233514,-1.15978,-0.483996,0.010459,-1.004251,0.021393,-2.620825,-35.950638,0.224624
641,0.238115,-1.164567,-0.481379,-0.012831,-0.972128,0.022195,-1.928368,-30.852207,-0.593599
642,0.233514,-1.157386,-0.470915,0.004035,-0.992205,0.012558,-0.480721,-34.754673,-0.530716
643,0.233514,-1.157386,-0.470915,-0.013633,-1.001842,0.042272,-0.921348,-41.99321,0.665251
644,0.233514,-1.164567,-0.497077,-0.012831,-0.987385,0.035046,-0.795433,-44.259228,0.728283
645,0.226612,-1.164567,-0.447369,0.00002,-0.992205,0.03665,-1.550773,-48.665203,1.357708
646,0.228913,-1.15978,-0.470915,0.005642,-1.005054,0.033439,-1.802453,-46.839962,-0.152972
647,0.224311,-1.162173,-0.46045,0.002428,-1.000236,0.010149,-1.424858,-41.426815,0.476453
648,0.224311,-1.171748,-0.444753,-0.002389,-0.994614,0.01818,-0.921348,-41.741528,0.917081
649,0.224311,-1.171748,-0.444753,0.00002,-0.985781,0.014164,-0.291923,-38.908966,-0.341769
650,0.217409,-1.166961,-0.465683,0.008051,-1.005858,0.021393,-1.424858,-36.894775,-0.027057
651,0.212808,-1.157386,-0.463066,0.014475,-1.005054,0.035848,-1.047263,-32.236973,-1.097109
652,0.208207,-1.166961,-0.447369,-0.003194,-0.994614,0.022997,-0.795433,-29.719275,0.602368
653,0.205906,-1.166961,-0.452602,0.000822,-1.002645,0.017377,-0.858316,-29.782156,1.294676
654,0.199004,-1.166961,-0.426439,0.015279,-1.001842,-0.013142,-0.543603,-30.159899,-0.216004
655,0.192103,-1.164567,-0.423823,0.000822,-1.005858,0.049501,-1.173028,-31.104036,-0.027057
656,0.192103,-1.164567,-0.423823,0.005642,-1.01148,0.03103,-0.858316,-33.118225,0.854049
657,0.192103,-1.164567,-0.449985,0.004035,-1.005858,0.019786,-0.858316,-32.4888,1.168761
658,0.180599,-1.150205,-0.421207,0.011264,-0.989796,-0.001095,-0.040093,-26.697912,-0.593599
659,0.180599,-1.157386,-0.457834,0.008051,-0.992205,0.03103,-0.543603,-21.914341,-0.530716
660,0.187501,-1.157386,-0.439521,0.013673,-1.001038,0.015771,-1.173028,-21.914341,-0.278886
661,0.178299,-1.154992,-0.449985,0.009657,-0.999434,0.001313,-1.802453,-24.62084,0.224624
662,0.178299,-1.154992,-0.449985,0.000822,-0.993812,0.00774,-2.74674,-27.705082,0.413422
663,0.173698,-1.162173,-0.442137,-0.001587,-1.010676,0.049501,-1.9914,-29.845184,-0.719514
664,0.171397,-1.157386,-0.452602,0.011264,-0.993812,0.034241,-1.047263,-29.530474,0.539336
665,0.169096,-1.15978,-0.46045,0.016081,-0.989796,-0.029204,-0.291923,-33.055344,0.979964
666,0.166796,-1.157386,-0.449985,0.016081,-1.007465,0.020588,-0.480721,-30.66341,1.231793
667,0.162194,-1.15978,-0.408126,0.024112,-1.001038,0.008542,0.526449,-21.473715,-0.971194
668,0.162194,-1.15978,-0.408126,0.016081,-0.994614,0.027817,-0.103125,-17.004707,-0.152972
669,0.159894,-1.157386,-0.426439,0.016884,-0.995418,0.017377,-0.543603,-18.641153,0.476453
670,0.166796,-1.15978,-0.429056,-0.011224,-0.985781,0.032635,-2.117315,-22.606649,-0.152972
671,0.166796,-1.15978,-0.402894,0.00002,-0.997827,-0.000291,-1.613656,-27.453253,-0.782397
672,0.155292,-1.154992,-0.40551,-0.000785,-1.01148,0.046288,-2.432028,-27.767965,-0.090089
673,0.152992,-1.150205,-0.418591,0.004837,-0.992205,0.006935,-0.858316,-25.439062,-0.656482
674,0.148391,-1.157386,-0.418591,0.006444,-0.98337,0.011755,-0.543603,-22.984245,0.413422
675,0.148391,-1.157386,-0.418591,0.014475,-0.997023,0.022997,0.274619,-23.676702,0.602368
676,0.155292,-1.150205,-0.402894,0.00002,-1.000236,0.047894,-0.040093,-22.858479,-0.404801
677,0.143789,-1.157386,-0.410742,0.004035,-0.996221,0.044681,-0.103125,-22.921362,-0.404801
678,0.14609,-1.162173,-0.389813,-0.008816,-0.990598,0.01818,-1.487741,-25.376179,-0.090089
679,0.14609,-1.157386,-0.408126,0.00002,-1.001842,0.022997,-1.739571,-32.42577,0.476453
680,0.14609,-1.166961,-0.421207,0.015279,-0.999434,0.012558,-1.802453,-38.972,0.035826
681,0.14609,-1.166961,-0.421207,0.008051,-0.995418,0.018982,0.526449,-39.286713,0.539336
682,0.139188,-1.154992,-0.426439,0.024915,-1.008267,0.023802,-0.040093,-39.160797,1.168761
683,0.129986,-1.152598,-0.397661,0.014475,-1.010676,0.026211,0.085822,-37.964828,-0.027057
684,0.136887,-1.166961,-0.387196,0.009657,-1.009873,0.028619,-1.424858,-41.99321,0.224624
685,0.132286,-1.169355,-0.361035,0.008853,-0.997023,0.022997,-1.550773,-40.482529,0.476453
686,0.127685,-1.166961,-0.374115,-0.005602,-0.997023,0.038257,-2.998421,-44.888653,-0.027057
687,0.127685,-1.166961,-0.374115,0.004035,-1.029148,0.010149,-2.368996,-48.917034,1.924101
688,0.129986,-1.162173,-0.381964,-0.020058,-0.996221,0.037455,-3.376165,-51.623531,-0.530716
689,0.125384,-1.174142,-0.38458,-0.001587,-0.967308,0.033439,-1.550773,-49.79829,-1.663651
690,0.10928,-1.166961,-0.371499,-0.002389,-0.974537,0.057532,-3.124336,-49.79829,0.287656
691,0.113881,-1.166961,-0.371499,0.007248,-1.023526,0.022195,-1.047263,-47.154675,2.175931
692,0.106979,-1.166961,-0.361035,0.012868,-1.013085,-0.028401,2.351692,-38.846085,0.728283
693,0.102378,-1.164567,-0.355802,0.016081,-0.963293,0.011755,2.288809,-31.670576,1.546506
694,0.102378,-1.164567,-0.355802,0.008853,-0.989796,0.020588,2.03698,-26.005604,0.602368
695,0.102378,-1.15978,-0.353186,0.010459,-1.02192,0.034241,-0.73255,-26.194403,-0.216004
696,0.095476,-1.174142,-0.363651,-0.000785,-0.979354,0.034241,-4.194388,-32.111057,-0.090089
697,0.095476,-1.169355,-0.366267,-0.014436,-1.017904,0.03665,-6.334493,-42.496719,-0.404801
698,0.088574,-1.176536,-0.363651,-0.001587,-0.949639,0.006935,-5.327323,-41.426815,-2.733704
699,0.088574,-1.17893,-0.353186,0.061056,-1.000236,-0.054903,-1.802453,-49.04295,-0.027057
700,0.088574,-1.17893,-0.353186,-0.024073,-0.988992,0.015771,2.414724,-49.105831,1.861218
701,0.083973,-1.166961,-0.361035,0.012868,-1.015495,-0.000291,4.554829,-49.861172,1.672421
702,0.086274,-1.174142,-0.334873,0.040174,-0.943215,-0.008322,2.981117,-49.168865,1.672421
703,0.081672,-1.169355,-0.347954,0.03375,-0.986583,0.010951,-1.173028,-45.140484,-0.467684
704,0.079372,-1.164567,-0.32964,0.009657,-0.985781,0.010149,-4.320303,-38.090744,-0.593599
705,0.067869,-1.166961,-0.311327,-0.008816,-0.992205,0.043077,-7.026801,-38.531372,-0.027057
706,0.070169,-1.17893,-0.324408,0.026521,-0.986583,-0.00752,-3.816643,-40.167816,0.665251
707,0.070169,-1.17893,-0.324408,0.005642,-0.971323,-0.038037,1.407555,-41.867294,0.854049
708,0.07247,-1.171748,-0.311327,0.01849,-1.005858,0.006935,3.232947,-37.587234,1.294676
709,0.065568,-1.176536,-0.311327,0.017688,-1.013085,0.044681,3.484776,-30.726294,0.413422
710,0.058666,-1.183717,-0.287781,-0.008816,-0.997827,0.03665,-0.291923,-29.845184,-1.160141
711,0.060967,-1.181324,-0.290397,0.002428,-0.994614,0.055123,-6.01978,-34.817703,-1.097109
712,0.063267,-1.181324,-0.269468,0.00002,-0.98337,0.015771,-7.404545,-35.321213,-0.530716
713,0.063267,-1.181324,-0.269468,-0.02568,-1.009069,0.022195,-4.068473,-36.831894,0.287656
714,0.058666,-1.183717,-0.293013,-0.006405,-0.986583,0.022997,0.966927,-36.517181,-1.097109
715,0.058666,-1.17893,-0.300862,-0.007209,-0.997023,0.05191,3.484776,-41.867294,0.665251
716,0.051764,-1.176536,-0.282549,0.008051,-0.964899,0.017377,1.596353,-47.09164,0.665251
717,0.047163,-1.176536,-0.311327,0.004837,-0.970521,0.038257,-1.739571,-45.83279,0.791166
718,0.049464,-1.193292,-0.29563,0.013673,-1.001842,0.026211,-5.075643,-46.651016,0.350539
719,0.049464,-1.193292,-0.29563,0.022506,-1.001038,-0.005111,-3.124336,-39.160797,0.665251
720,0.047163,-1.183717,-0.282549,0.024915,-0.993812,-0.013944,-0.040093,-35.761841,0.917081
721,0.040261,-1.186111,-0.259003,0.017688,-0.982567,0.006935,2.100012,-30.159899,0.476453
722,0.031059,-1.183717,-0.266851,-0.000785,-0.986583,0.03665,1.596353,-31.922258,0.917081
723,0.03566,-1.183717,-0.248538,0.009657,-1.008267,0.070381,-0.669518,-28.460423,-0.467684
724,0.024157,-1.190899,-0.282549,0.002428,-1.003449,0.015771,-3.879676,-27.075657,-0.845429
725,0.028758,-1.195686,-0.253771,0.016884,-1.009873,-0.008322,-4.00559,-27.201572,0.224624
726,0.028758,-1.195686,-0.253771,-0.013633,-1.005054,0.013362,-1.9914,-27.956911,0.224624
727,0.026457,-1.19808,-0.235457,0.003231,-1.004251,0.029424,0.211737,-27.642199,0.098709
728,0.017255,-1.193292,-0.245922,0.016081,-1.005858,0.033439,1.155874,-32.551685,-0.278886
729,0.019556,-1.186111,-0.238074,0.00002,-1.019511,0.017377,1.092842,-35.258331,0.665251
730,0.019556,-1.186111,-0.245922,0.015279,-0.98337,0.037455,-0.291923,-34.251163,1.735304
731,0.026457,-1.195686,-0.243306,0.002428,-0.97293,0.020588,-3.439048,-33.055344,-1.223024
732,0.026457,-1.195686,-0.243306,0.001626,-1.002645,0.023802,-3.061453,-32.614716,-0.027057
733,0.019556,-1.190899,-0.217144,0.002428,-1.025935,0.028619,-1.865485,-33.684769,0.476453
734,0.019556,-1.186111,-0.224993,0.010459,-1.015495,-0.000291,1.470587,-32.614716,1.609389
735,0.017255,-1.188505,-0.206679,0.012868,-1.010676,0.014966,2.855351,-31.355865,0.791166
736,0.010353,-1.19808,-0.245922,0.013673,-1.008267,0.047092,2.414724,-28.460423,1.357708
737,-0.003451,-1.195686,-0.206679,0.011264,-0.989796,0.020588,-1.9914,-26.697912,0.350539
738,0.008052,-1.193292,-0.24069,0.009657,-1.007465,0.023802,-2.620825,-25.942722,0.917081
739,0.008052,-1.193292,-0.24069,0.012066,-0.984174,0.021393,-2.306113,-25.250265,1.420591
740,0.005752,-1.183717,-0.232841,-0.026484,-1.003449,0.031833,3.421744,-26.509115,2.994153
741,0.010353,-1.186111,-0.230225,-0.019255,-1.00666,0.038257,7.198444,-26.194403,2.553526
742,0.014954,-1.188505,-0.211912,0.034552,-0.966506,0.021393,2.288809,-25.690891,-0.090089
743,0.001151,-1.188505,-0.238074,0.053025,-0.967308,0.005331,-4.635015,-22.858479,-1.663651
744,-0.010353,-1.17893,-0.204063,0.036159,-1.013085,0.008542,-7.908055,-21.221886,-0.216004
745,-0.010353,-1.17893,-0.204063,0.000822,-1.025935,-0.001095,-3.501931,-24.62084,3.245983
746,0.001151,-1.193292,-0.222376,-0.008011,-0.988992,0.025408,3.232947,-27.012625,-0.467684
747,-0.010353,-1.17893,-0.196214,-0.002389,-0.973734,0.058334,5.373052,-31.292837,-2.418991
748,0.001151,-1.17893,-0.204063,0.017688,-0.985781,0.047092,2.162894,-28.39739,-0.530716
749,-0.014954,-1.181324,-0.196214,-0.017649,-1.008267,0.039061,-2.683708,-29.530474,1.483474
750,-0.008052,-1.186111,-0.198831,-0.041742,-1.002645,0.039863,-5.642035,-32.4888,-0.404801
751,-0.008052,-1.186111,-0.198831,0.003231,-0.985781,0.002118,-4.131505,-36.076553,-1.223024
752,-0.010353,-1.186111,-0.204063,0.005642,-1.008267,0.014164,-0.040093,-36.391266,1.294676
753,-0.005751,-1.183717,-0.180517,0.012868,-0.963293,0.021393,0.841162,-37.020691,0.161741
754,-0.010353,-1.188505,-0.209295,0.013673,-0.998629,0.019786,1.659384,-35.950638,-0.027057
755,-0.019555,-1.188505,-0.159588,-0.014436,-0.999434,0.051108,-0.480721,-37.146606,0.665251
756,-0.019555,-1.186111,-0.180517,0.01849,-1.000236,0.023802,-0.795433,-40.356766,0.539336
757,-0.026457,-1.193292,-0.167436,0.010459,-1.016298,0.028619,-2.432028,-43.377975,0.287656
758,-0.026457,-1.193292,-0.167436,0.016081,-0.999434,0.006935,-0.669518,-42.307922,0.728283
759,-0.017255,-1.193292,-0.170052,0.017688,-1.021117,-0.000291,-0.543603,-40.356766,0.476453
760,-0.028758,-1.186111,-0.146507,-0.001587,-0.997023,-0.001898,-0.73255,-40.293732,1.609389
761,-0.014954,-1.190899,-0.146507,-0.009618,-1.012282,0.002118,-0.417838,-44.322113,1.294676
762,-0.028758,-1.186111,-0.117729,-0.014436,-1.007465,0.022195,-0.858316,-45.580963,-0.341769
763,-0.028758,-1.183717,-0.151739,0.016081,-1.002645,-0.006717,-1.676688,-45.455196,0.413422
764,-0.028758,-1.183717,-0.151739,0.012868,-1.004251,0.009346,-3.564963,-43.755718,0.350539
765,-0.026457,-1.202867,-0.112496,-0.005602,-0.986583,0.022997,-2.432028,-41.4897,1.294676
766,-0.03566,-1.188505,-0.149123,-0.003996,-1.018707,0.035848,-0.480721,-44.007401,1.042996
767,-0.026457,-1.190899,-0.128193,0.022506,-1.029148,0.014966,1.848182,-43.566772,1.420591
768,-0.042562,-1.188505,-0.133426,0.017688,-0.968915,0.011755,-2.180198,-44.133316,-1.978364
769,-0.03796,-1.186111,-0.136042,0.008853,-1.021117,0.00774,-3.313133,-41.99321,1.609389
770,-0.03796,-1.186111,-0.136042,0.024112,-0.993812,-0.003504,-5.579153,-44.448029,0.728283
771,-0.03566,-1.190899,-0.117729,-0.01042,-1.028344,-0.005111,-3.124336,-45.203365,-0.782397
772,-0.047163,-1.193292,-0.151739,0.011264,-1.037982,0.009346,3.421744,-44.636826,0.917081
773,-0.044862,-1.195686,-0.136042,-0.014436,-1.001842,0.035046,3.799489,-45.643993,1.231793
774,-0.042562,-1.195686,-0.107264,-0.011224,-0.981765,0.057532,0.77813,-48.791119,0.854049
775,-0.03796,-1.190899,-0.104648,-0.011224,-0.985781,0.054319,-2.243081,-48.476406,1.231793
776,-0.03566,-1.19808,-0.125577,0.01849,-0.985781,0.03665,-7.27863,-48.413525,-0.152972
777,-0.03566,-1.19808,-0.125577,0.001626,-0.998629,0.010149,-5.01261,-46.651016,1.735304
778,-0.042562,-1.193292,-0.096799,0.013673,-1.01148,0.028619,-1.23606,-47.595154,1.546506
779,-0.054065,-1.195686,-0.104648,0.019295,-0.975339,-0.004307,-0.103125,-52.12719,-0.341769
780,-0.054065,-1.19808,-0.102031,0.037765,-0.978552,-0.002702,-2.620825,-51.183052,-0.845429
781,-0.054065,-1.19808,-0.086334,0.00002,-1.017904,-0.003504,-1.676688,-54.330177,2.742473
782,-0.056365,-1.202867,-0.057556,0.00002,-0.986583,0.022997,1.218757,-52.756615,2.175931
783,-0.056365,-1.202867,-0.057556,0.004035,-0.991403,0.03665,0.715247,-50.427715,-1.348939
784,-0.060967,-1.202867,-0.075869,0.032948,-0.97293,0.054319,-5.579153,-49.105831,-2.041247
785,-0.058666,-1.193292,-0.039243,0.017688,-0.997827,0.027013,-5.327323,-50.427715,2.301846
786,-0.054065,-1.202867,-0.065405,0.004035,-1.009873,-0.048479,0.966927,-46.714046,3.308866
787,-0.060967,-1.19808,-0.044475,0.005642,-0.988992,0.016573,-0.795433,-45.83279,-3.363129
788,-0.056365,-1.195686,-0.05494,0.032948,-1.003449,0.050303,-1.487741,-50.553627,-0.278886
789,-0.060967,-1.200474,-0.052324,0.016884,-1.012282,0.003724,-2.432028,-53.700752,3.182951
790,-0.060967,-1.200474,-0.052324,0.004837,-1.013889,-0.003504,-1.361975,-57.414421,2.112899
791,-0.056365,-1.210049,-0.041859,0.004837,-0.999434,0.016573,-1.865485,-54.707775,-1.537737
792,-0.067868,-1.205261,-0.060172,0.015279,-1.016298,-0.001898,-1.676688,-55.40023,-0.090089
793,-0.065568,-1.193292,0.005233,0.024112,-1.00666,0.045486,0.966927,-54.770805,3.623579
794,-0.063267,-1.19808,-0.002616,-0.013633,-0.989796,0.020588,1.785299,-50.364681,2.238814
795,-0.067868,-1.195686,-0.007848,-0.024877,-0.980961,0.00292,2.729437,-46.714046,-0.090089
796,-0.067868,-1.195686,-0.007848,0.008051,-0.97775,0.00774,0.085822,-42.559753,0.413422
797,-0.063267,-1.188505,-0.018313,0.051418,-0.937593,-0.03081,-7.593342,-39.034882,-1.915481
798,-0.067868,-1.200474,0,0.030537,-1.002645,-0.009929,-13.3212,-31.041155,-1.034226
799,-0.063267,-1.200474,0.002616,-0.01524,-1.047619,-0.019566,-1.361975,-36.076553,5.134258
800,-0.070169,-1.207655,-0.010465,-0.01042,-0.972128,0.019786,7.135412,-43.31509,1.735304
801,-0.058666,-1.19808,0.010465,-0.003194,-1.013889,0.05191,13.429811,-44.825771,-3.048416
802,-0.058666,-1.19808,0.010465,0.031341,-0.976945,0.066365,2.603522,-49.04295,-2.544906
803,-0.060967,-1.210049,0.018314,0.020097,-0.963293,0.028619,-5.390355,-46.273418,2.364728
804,-0.060967,-1.205261,0.005233,-0.000785,-1.009069,-0.009929,-10.677586,-41.049072,0.917081
805,-0.058666,-1.200474,0.005233,-0.012027,-1.001842,0.000511,-3.816643,-37.964828,-0.593599
806,-0.07247,-1.19808,0.013081,0.017688,-1.016298,0.006133,-0.228891,-38.908966,-1.537737
807,-0.063267,-1.19808,0.034011,0.032143,-1.005054,0.012558,1.28164,-37.776031,0.539336
808,-0.070169,-1.214836,0.018314,0.01849,-0.985781,0.026211,-1.173028,-35.0065,1.861218
809,-0.070169,-1.214836,0.018314,0.006444,-1.001038,0.025408,0.211737,-34.691788,1.168761
810,-0.067868,-1.202867,0.028778,0.004035,-0.981765,0.00774,-2.117315,-39.664307,-1.600768
811,-0.067868,-1.188505,0.034011,-0.001587,-1.003449,0.00774,1.092842,-48.476406,0.476453
812,-0.060967,-1.19808,0.057556,-0.009618,-1.024329,0.044681,-0.228891,-51.56065,1.987133
813,-0.060967,-1.19808,0.026162,0.012868,-0.968112,0.012558,-1.802453,-51.05714,0.476453
814,-0.067868,-1.195686,0.060173,-0.001587,-1.014691,0.006133,0.77813,-46.651016,0.979964
815,-0.067868,-1.195686,0.060173,0.024112,-0.988992,-0.009929,-5.516121,-45.643993,-0.908311
816,-0.083973,-1.195686,0.05494,0.019295,-1.008267,0.004527,0.337502,-42.496719,2.868239
817,-0.065568,-1.202867,0.057556,0.014475,-0.98337,0.045486,-4.571983,-43.755718,0.035826
818,-0.060967,-1.202867,0.070637,0.012066,-0.972128,0.010149,3.170064,-46.714046,0.098709
819,-0.058666,-1.210049,0.078486,0.014475,-0.990598,0.012558,1.092842,-39.790222,-0.593599
820,-0.063267,-1.19808,0.094183,0.005642,-0.994614,0.034241,-2.180198,-39.097916,-0.027057
821,-0.070169,-1.200474,0.096799,0.007248,-1.003449,0.00774,-1.361975,-42.05624,1.105878
822,-0.070169,-1.200474,0.096799,0.020097,-1.013889,0.014966,-2.683708,-42.182007,-0.341769
823,-0.070169,-1.195686,0.073254,0.004035,-0.994614,-0.017157,-0.417838,-35.321213,0.287656
824,-0.079372,-1.195686,0.091567,0.024915,-0.981765,0.033439,-2.432028,-30.3487,-0.971194
825,-0.067868,-1.195686,0.099416,0.010459,-0.980159,0.021393,2.100012,-33.495823,2.175931
826,-0.065568,-1.19808,0.099416,0.004035,-0.984174,0.017377,-0.228891,-33.558853,-0.027057
827,-0.065568,-1.195686,0.138659,0.004837,-1.015495,0.051108,-1.361975,-31.985291,-0.782397
828,-0.065568,-1.195686,0.138659,-0.002389,-1.016298,0.063956,-4.76093,-37.083725,-0.152972
829,-0.067868,-1.205261,0.115113,0.025719,-1.061272,-0.008322,1.407555,-35.321213,1.357708
830,-0.07247,-1.207655,0.104648,-0.001587,-1.024329,0.020588,-2.054283,-30.411577,0.224624
831,-0.063267,-1.200474,0.107264,0.02893,-1.015495,0.027013,-2.243081,-33.810535,-1.285907
832,-0.077071,-1.205261,0.117729,0.025719,-0.970521,0.019786,-3.439048,-32.740482,-1.474854
833,-0.07247,-1.190899,0.10988,0.008853,-1.017102,0.050303,-6.900886,-42.182007,0.098709
834,-0.07247,-1.190899,0.10988,-0.029695,-1.000236,0.03665,4.114202,-45.203365,2.301846
835,-0.07247,-1.207655,0.120345,-0.026484,-0.976945,0.054319,10.849079,-55.651913,2.175931
836,-0.065568,-1.205261,0.128194,0.017688,-0.989796,0.049501,2.225926,-58.169765,-0.908311
837,-0.067868,-1.19808,0.138659,0.063465,-0.953655,-0.019566,-7.908055,-47.154675,-2.922502
838,-0.065568,-1.202867,0.136042,0.015279,-1.058863,0.00774,-16.342411,-30.789326,1.231793
839,-0.063267,-1.200474,0.128194,0.016081,-1.042801,-0.017157,-9.481618,-27.579166,3.560696
840,-0.054065,-1.207655,0.156972,-0.005602,-0.988992,-0.032417,5.058339,-30.66341,0.728283
841,-0.054065,-1.207655,0.156972,0.009657,-0.982567,0.01818,8.960804,-36.013672,-3.174331
842,-0.060967,-1.200474,0.159588,0.032948,-0.993812,0.016573,11.289707,-39.664307,1.042996
843,-0.056365,-1.19808,0.175285,0.016081,-1.009873,0.063154,2.666405,-42.811581,3.182951
844,-0.065568,-1.200474,0.162204,0.008051,-0.974537,0.050303,-2.117315,-40.545563,2.301846
845,-0.065568,-1.19808,0.149123,0.011264,-0.92394,-0.03081,-0.921348,-34.502991,-2.418991
846,-0.058666,-1.19808,0.16482,0.020899,-1.063681,-0.001898,-13.384083,-26.320316,-2.670672
847,-0.058666,-1.19808,0.16482,0.029734,-0.944019,-0.078996,-5.642035,-18.200674,1.672421
848,-0.054065,-1.207655,0.156972,-0.008011,-1.009069,0.005331,4.743627,-19.83712,2.931271
849,-0.051764,-1.195686,0.16482,0.004837,-1.004251,0.018982,8.205464,-18.326441,-0.404801
850,-0.060967,-1.202867,0.183134,0.012066,-0.991403,0.045486,6.694784,-22.291937,-2.293077
851,-0.054065,-1.207655,0.159588,0.013673,-1.009069,0.04147,-3.501931,-24.494925,0.413422
852,-0.058666,-1.19808,0.18575,0.011264,-0.980961,-0.004307,-5.767951,-24.62084,1.609389
853,-0.058666,-1.19808,0.18575,-0.007209,-1.010676,0.006133,-6.145695,-26.446232,0.224624
854,-0.060967,-1.195686,0.183134,0.015279,-0.997023,-0.010733,-4.571983,-34.377075,-0.908311
855,-0.054065,-1.207655,0.180518,0.047403,-1.012282,0.026211,0.652215,-37.461319,-0.530716
856,-0.060967,-1.193292,0.198831,0.03375,-0.941609,0.028619,-4.76093,-39.286713,-1.034226
857,-0.054065,-1.200474,0.204063,0.012066,-1.00666,0.004527,-2.683708,-39.853104,1.609389
858,-0.042562,-1.202867,0.190982,-0.005602,-1.034769,0.044681,2.414724,-42.182007,2.679441
859,-0.047163,-1.183717,0.201447,-0.003194,-0.989796,0.00774,3.988287,-41.237869,0.224624
860,-0.047163,-1.183717,0.201447,-0.003194,-0.976945,0.046288,0.715247,-39.727341,0.287656
861,-0.044862,-1.205261,0.196215,0.034552,-0.973734,0.000511,-0.921348,-36.643097,-0.090089
862,-0.054065,-1.205261,0.219761,0.017688,-0.975339,0.002118,-10.55167,-37.461319,1.042996
863,-0.047163,-1.195686,0.211912,0.008051,-1.014691,-0.020369,-3.627846,-32.236973,-0.278886
864,-0.049463,-1.19808,0.204063,0.001626,-1.003449,0.004527,2.100012,-31.859377,-1.663651
865,-0.044862,-1.195686,0.211912,0.038568,-0.963293,0.016573,3.107032,-33.999481,0.539336
866,-0.044862,-1.195686,0.211912,-0.003194,-0.974537,0.01818,2.225926,-37.71315,2.742473
867,-0.033359,-1.186111,0.219761,-0.012027,-1.001038,0.042272,3.862371,-42.685665,1.987133
868,-0.049463,-1.188505,0.238074,0.02893,-0.980159,0.002118,-3.564963,-38.846085,-0.027057
869,-0.040261,-1.19808,0.248539,0.024915,-0.994614,0.022195,-4.697898,-34.628906,0.602368
870,-0.040261,-1.200474,0.198831,0.024112,-0.956868,0.006133,-2.49491,-32.803513,0.602368
871,-0.042562,-1.193292,0.209296,0.011264,-1.007465,-0.011535,1.092842,-25.061466,-0.971194
872,-0.031058,-1.207655,0.219761,-0.006405,-1.002645,0.052714,1.785299,-25.62801,-0.216004
873,-0.031058,-1.207655,0.219761,0.003231,-1.029951,0.055925,-0.73255,-33.999481,1.609389
874,-0.051764,-1.200474,0.243306,-0.0048,-1.000236,0.018982,-1.047263,-37.776031,0.665251
875,-0.047163,-1.207655,0.251155,0.016081,-0.980159,0.027817,-0.606635,-42.74855,0.413422
876,-0.042562,-1.195686,0.256387,0.008853,-1.008267,0.022997,-1.110146,-37.838913,-1.034226
877,-0.049463,-1.202867,0.251155,0.029734,-0.992205,0.034241,-5.075643,-37.272522,0.917081
878,-0.049463,-1.190899,0.245923,0.010459,-0.990598,-0.001095,0.274619,-32.551685,0.350539
879,-0.049463,-1.190899,0.245923,0.002428,-0.985781,-0.005111,0.211737,-29.530474,-0.530716
880,-0.042562,-1.183717,0.259003,0.010459,-0.996221,0.009346,-0.480721,-34.062363,0.665251
881,-0.026457,-1.188505,0.248539,0.016884,-1.00666,0.067169,-5.201408,-34.062363,-1.223024
882,-0.033359,-1.186111,0.253771,0.004837,-1.019511,0.013362,-7.970938,-31.104036,-2.041247
883,-0.021856,-1.188505,0.272084,0.040979,-0.985781,0.024604,-5.767951,-35.950638,-0.908311
884,-0.028758,-1.19808,0.287782,-0.009618,-1.077334,0.020588,-2.368996,-42.559753,1.546506
885,-0.028758,-1.19808,0.287782,0.004837,-1.004251,0.035848,1.029959,-48.602322,2.427611
886,-0.033359,-1.186111,0.277317,0.009657,-0.970521,0.026211,4.932425,-55.085518,-0.341769
887,-0.024156,-1.188505,0.306095,-0.012027,-0.989796,0.039863,1.911214,-52.8195,-0.404801
888,-0.028758,-1.188505,0.277317,0.017688,-0.989796,0.022195,-3.124336,-62.764534,1.735304
889,-0.019555,-1.181324,0.285165,-0.011224,-1.009873,0.002118,-6.649205,-60.498669,1.294676
890,-0.019555,-1.19808,0.272084,0.010459,-0.940806,-0.001095,-5.01261,-56.092541,-1.348939
891,-0.024156,-1.190899,0.293014,0.021704,-0.98337,-0.038037,-0.228891,-48.728237,-1.034226
892,-0.024156,-1.190899,0.293014,-0.0048,-1.035573,0.018982,1.470587,-44.385143,1.798187
893,-0.024156,-1.190899,0.300863,-0.017649,-0.992205,0.003724,4.114202,-44.636826,1.735304
894,-0.005751,-1.200474,0.324408,0.024915,-0.974537,0.017377,0.337502,-45.769909,-0.341769
895,-0.010353,-1.195686,0.303479,-0.003996,-1.016298,0.014966,1.785299,-44.448029,-0.152972
896,-0.005751,-1.190899,0.324408,-0.027286,-0.984976,-0.010733,-4.635015,-47.469387,1.105878
897,-0.014954,-1.186111,0.319176,0.011264,-1.004251,-0.011535,-9.040991,-44.133316,-0.782397
898,-0.014954,-1.186111,0.319176,0.002428,-1.034769,0.034241,-2.557793,-42.622635,-1.600768
899,-0.00115,-1.190899,0.327025,0.012066,-0.976945,0.044681,9.212634,-49.357662,1.735304
900,0.005752,-1.195686,0.327025,0.011264,-0.954459,0.035848,0.400534,-53.511955,1.231793
901,0.005752,-1.190899,0.345338,0.01849,-0.98337,0.043879,-6.963918,-53.134212,0.979964
902,-0.005751,-1.190899,0.340106,0.011264,-1.018707,0.00774,-8.03397,-40.671478,-1.663651
903,-0.00115,-1.190899,0.358419,0.029734,-1.003449,-0.038841,-5.767951,-37.209488,-0.152972
904,0.014954,-1.195686,0.366267,0.02893,-1.022722,0.01818,-1.23606,-32.677601,1.546506
905,0.014954,-1.195686,0.366267,-0.003194,-1.005858,-0.001898,1.911214,-34.062363,1.483474
906,-0.012653,-1.190899,0.361035,0.021704,-0.993007,0.043879,4.680594,-32.929428,-1.097109
907,-0.00115,-1.17893,0.35057,0.019295,-0.957671,0.042272,6.002477,-27.012625,-0.090089
908,0.005752,-1.183717,0.368883,-0.001587,-0.97293,0.037455,-8.096853,-30.285814,-0.278886
909,0.008052,-1.190899,0.3715,0.007248,-1.00666,0.010149,-8.852193,-32.111057,-0.341769
910,0.008052,-1.19808,0.35057,-0.005602,-1.002645,0.033439,1.407555,-33.307026,-0.027057
911,0.008052,-1.19808,0.35057,-0.003194,-0.998629,-0.023582,3.044149,-44.133316,0.854049
912,-0.003451,-1.186111,0.395046,0.008853,-0.965703,-0.045266,-4.571983,-36.705978,1.105878
913,0.010353,-1.17893,0.347954,0.009657,-1.017102,0.006133,-1.739571,-27.642199,0.665251
914,0.014954,-1.183717,0.3715,0.020899,-0.971323,0.004527,3.988287,-22.921362,-0.027057
915,0.019556,-1.17893,0.389813,0.037765,-0.997023,0.001313,1.974097,-26.88686,0.224624
916,0.019556,-1.181324,0.395046,0.012066,-1.005054,0.032635,-3.439048,-22.858479,0.161741
917,0.019556,-1.181324,0.395046,0.013673,-0.976945,0.014164,-5.264441,-22.984245,-0.782397
918,0.008052,-1.181324,0.395046,0.016884,-1.015495,-0.014748,-1.047263,-25.376179,-0.341769
919,0.021856,-1.183717,0.384581,0.025719,-1.022722,0.006935,0.904044,-27.13854,0.791166
920,0.021856,-1.17893,0.402894,-0.006405,-1.002645,0.017377,2.03698,-27.642199,0.979964
921,0.019556,-1.17893,0.40551,0.006444,-0.976143,0.037455,3.044149,-34.251163,0.665251
922,0.017255,-1.174142,0.40551,0.012868,-1.022722,0.053516,0.274619,-40.860275,0.161741
923,0.017255,-1.183717,0.384581,0.004837,-0.917516,-0.005111,1.344672,-41.678497,-3.300097
924,0.017255,-1.183717,0.384581,0.008853,-1.038786,0.019786,-10.929266,-24.998436,1.231793
925,0.026457,-1.195686,0.413359,0.005642,-1.083758,-0.062132,-5.767951,-12.472816,0.224624
926,0.024157,-1.186111,0.421208,0.004837,-1.026738,-0.037235,-0.858316,-3.534803,-0.216004
927,0.033359,-1.195686,0.387197,0.02331,-0.966506,-0.023582,3.484776,-2.905378,-0.152972
928,0.037961,-1.186111,0.400278,0.021704,-0.97775,0.010951,4.806509,-6.304333,0.287656
929,0.031059,-1.17893,0.402894,0.000822,-0.990598,0.022997,1.848182,-12.850412,-0.530716
930,0.031059,-1.17893,0.402894,0.003231,-1.021117,0.030226,-3.879676,-18.767067,-1.285907
931,0.042562,-1.176536,0.408127,0.010459,-0.999434,0.014164,-1.9914,-18.892982,-1.160141
932,0.037961,-1.181324,0.387197,0.016081,-0.993812,0.017377,-0.103125,-18.704185,0.539336
933,0.040261,-1.186111,0.415975,0.014475,-0.97293,-0.003504,-1.676688,-9.577373,1.168761
934,0.044862,-1.183717,0.429056,0.008051,-0.989796,-0.021173,-3.313133,-3.094175,-1.034226
935,0.037961,-1.176536,0.395046,0.013673,-1.00666,0.009346,-2.117315,-1.017102,-2.230194
936,0.037961,-1.176536,0.395046,0.017688,-1.007465,-0.014748,0.463417,-0.135848,-0.656482
937,0.042562,-1.174142,0.402894,-0.0048,-0.996221,0.012558,1.974097,-1.017102,0.728283
938,0.049464,-1.181324,0.413359,0.001626,-0.993007,0.005331,1.092842,-2.087155,0.413422
939,0.037961,-1.17893,0.42644,0.007248,-1.000236,0.006935,-0.73255,-4.604855,-1.411822
940,0.049464,-1.183717,0.415975,0.015279,-0.994614,0.030226,-0.921348,-9.26266,-1.097109
941,0.049464,-1.176536,0.397662,0.020899,-1.00666,0.047894,-0.984231,-13.228008,0.287656
942,0.047163,-1.181324,0.402894,0.012066,-1.003449,0.038257,0.085822,-13.605752,0.476453
943,0.047163,-1.181324,0.402894,0.012066,-1.007465,0.031833,-2.74674,-10.584393,-0.152972
944,0.047163,-1.186111,0.42644,0.012868,-1.005858,0.016573,-1.865485,-8.75915,-0.656482
945,0.049464,-1.186111,0.410743,0.008853,-0.993007,0.039061,-0.921348,-7.940778,-0.467684
946,0.051764,-1.186111,0.400278,0.012868,-0.997023,0.01818,-1.047263,-8.633235,0.476453
947,0.056365,-1.17893,0.421208,0.003231,-0.996221,0.002118,-0.73255,-9.640255,-0.090089
948,0.063267,-1.186111,0.410743,0.004837,-0.996221,0.024604,-0.103125,-15.494026,-0.908311
949,0.063267,-1.186111,0.410743,0.020097,-0.991403,0.020588,1.218757,-17.571249,-0.845429
950,0.056365,-1.181324,0.410743,0.012868,-0.998629,0.020588,-1.361975,-19.459524,1.231793
951,0.056365,-1.171748,0.423824,0.004837,-0.994614,0.004527,-1.550773,-18.07476,-0.341769
952,0.051764,-1.176536,0.400278,0.011264,-0.991403,0.018982,-1.550773,-16.249367,-1.474854
953,0.063267,-1.17893,0.423824,0.010459,-0.994614,-0.001095,-0.228891,-15.368112,-0.341769
954,0.060967,-1.176536,0.439521,0.005642,-0.998629,-0.021173,-1.361975,-14.738688,1.483474
955,0.054065,-1.174142,0.434289,-0.005602,-1.005858,0.038257,0.652215,-29.089848,0.350539
956,0.054065,-1.174142,0.434289,-0.011224,-1.001038,-0.010733,4.240116,-32.236973,-1.348939
957,0.058666,-1.174142,0.442137,0.02331,-1.004251,0.034241,-2.935538,-27.390369,0.854049
958,0.044862,-1.17893,0.434289,-0.01524,-0.984976,0.039863,-2.117315,-25.816807,0.728283
959,0.07247,-1.181324,0.431672,0.009657,-1.013085,-0.003504,-7.026801,-28.334507,0.979964
960,0.060967,-1.181324,0.423824,0.00002,-1.007465,0.017377,0.77813,-33.684769,-0.278886
961,0.070169,-1.183717,0.413359,0.004837,-0.990598,0.032635,-0.984231,-34.628906,0.728283
962,0.070169,-1.183717,0.413359,0.032948,-0.986583,-0.021173,1.974097,-34.502991,0.917081
963,0.07477,-1.183717,0.40551,0.012066,-0.998629,0.009346,-1.739571,-29.215763,0.539336
964,0.063267,-1.174142,0.457834,0.006444,-0.98819,-0.002702,0.085822,-30.096867,-0.278886
965,0.077071,-1.176536,0.421208,0.001626,-0.989796,0.026211,-2.243081,-24.432041,-0.908311
966,0.070169,-1.174142,0.436905,0.003231,-1.012282,0.032635,-4.194388,-31.292837,0.728283
967,0.077071,-1.169355,0.452602,0.012868,-1.007465,0.010951,0.526449,-32.048176,-0.152972
968,0.077071,-1.169355,0.452602,0.019295,-1.000236,0.018982,1.029959,-26.131519,0.035826
969,0.07247,-1.17893,0.463066,0.004035,-0.994614,0.022997,0.02279,-23.236074,0.161741
970,0.083973,-1.183717,0.44737,0.003231,-1.00666,-0.003504,-2.49491,-27.956911,0.791166
971,0.088574,-1.183717,0.455218,0.021704,-1.017102,-0.010733,-0.73255,-23.487904,-1.285907
972,0.079372,-1.169355,0.442137,0.008853,-1.021117,-0.011535,-2.935538,-20.529577,0.035826
973,0.083973,-1.166961,0.452602,0.017688,-0.988992,0.008542,0.966927,-22.166023,-0.090089
974,0.090875,-1.176536,0.463066,-0.011224,-0.98819,0.021393,1.722267,-23.424873,-0.216004
975,0.090875,-1.176536,0.463066,0.008051,-0.994614,0.010149,-0.291923,-23.739586,0.161741
976,0.095476,-1.17893,0.468299,0.013673,-1.00666,0.012558,-0.103125,-21.284916,-0.278886
977,0.090875,-1.176536,0.468299,0.011264,-0.997827,0.018982,-2.49491,-19.58544,-0.090089
978,0.100077,-1.188505,0.465683,0.007248,-0.995418,-0.001095,-0.921348,-20.592461,-0.467684
979,0.100077,-1.17893,0.48138,0.007248,-0.981765,0.010951,-1.424858,-15.934654,-0.090089
980,0.113881,-1.166961,0.431672,0.005642,-0.990598,-0.023582,-0.291923,-17.508217,0.098709
981,0.113881,-1.166961,0.431672,0.012868,-0.998629,-0.016353,0.589332,-14.801721,-0.467684
982,0.097777,-1.174142,0.494461,0.006444,-1.003449,0.022195,0.652215,-15.179316,-0.593599
983,0.104679,-1.174142,0.44737,0.016884,-1.005054,0.014966,-0.543603,-15.368112,-0.278886
984,0.106979,-1.181324,0.491845,0.012868,-0.994614,0.009346,-1.676688,-16.564079,-0.467684
985,0.111581,-1.183717,0.476147,0.004837,-0.997023,0.028619,-1.928368,-15.494026,-0.719514
986,0.106979,-1.17893,0.483996,0.017688,-1.012282,-0.015551,-0.858316,-15.494026,-0.216004
987,0.113881,-1.174142,0.468299,0.00002,-1.005054,0.010951,0.274619,-20.592461,0.350539
988,0.113881,-1.174142,0.468299,-0.002389,-0.996221,0.023802,0.211737,-22.669533,0.035826
989,0.118482,-1.174142,0.476147,0.001626,-0.990598,0.03665,-0.291923,-28.838015,0.035826
990,0.106979,-1.176536,0.473531,0.020097,-0.990598,0.022195,-2.243081,-34.565876,0.602368
991,0.116182,-1.17893,0.457834,0.015279,-0.987385,0.037455,-2.180198,-32.740482,-0.404801
992,0.116182,-1.181324,0.473531,0.008853,-1.010676,0.038257,-2.180198,-35.761841,0.413422
993,0.116182,-1.166961,0.470915,0.004035,-1.021117,0.026211,-1.613656,-30.285814,0.791166
994,0.116182,-1.166961,0.470915,-0.012027,-1.004251,0.019786,0.148705,-28.208591,0.098709
995,0.123084,-1.174142,0.483996,0.026521,-0.991403,0.01818,-0.858316,-29.152729,-0.216004
996,0.123084,-1.183717,0.515391,0.000822,-0.98337,-0.003504,-0.480721,-24.683723,0.035826
997,0.125384,-1.174142,0.465683,0.001626,-0.994614,0.010951,-1.487741,-27.956911,0.413422
998,0.123084,-1.169355,0.489228,-0.011224,-1.004251,0.010951,-1.173028,-31.922258,-0.152972
999,0.132286,-1.169355,0.491845,0.021704,-0.990598,-0.004307,-1.298943,-34.880589,0.161741
1000,0.132286,-1.169355,0.491845,0.000822,-0.994614,0.001313,0.841162,-33.118225,0.413422
1001,0.127685,-1.166961,0.483996,0.013673,-1.013889,0.010149,-0.166008,-36.705978,0.728283
1002,0.116182,-1.15978,0.48138,0.013673,-1.001842,0.010149,-2.368996,-43.189178,0.539336
1003,0.136887,-1.171748,0.497077,-0.012027,-0.974537,0.011755,-0.543603,-43.126293,-0.341769
1004,0.148391,-1.166961,0.468299,0.000822,-0.973734,0.008542,-1.23606,-48.602322,0.098709
1005,0.136887,-1.174142,0.502309,0.014475,-1.005054,-0.005913,-0.166008,-50.86834,0.224624
1006,0.157593,-1.171748,0.510158,0.010459,-1.007465,0.011755,-0.984231,-43.25206,0.665251
1007,0.157593,-1.171748,0.510158,0.012066,-1.015495,0.015771,-0.795433,-46.588131,0.287656
1008,0.148391,-1.17893,0.53632,0.008051,-0.980159,-0.014748,-1.487741,-42.119125,0.287656
1009,0.155292,-1.166961,0.520623,0.004837,-0.994614,-0.030006,0.02279,-34.817703,-0.027057
1010,0.159894,-1.166961,0.541553,0.004837,-0.995418,0.025408,-1.550773,-33.055344,0.413422
1011,0.169096,-1.174142,0.533704,0.005642,-1.001842,-0.000291,-1.424858,-34.691788,0.413422
1012,0.180599,-1.164567,0.515391,-0.003194,-0.980159,0.006935,-1.173028,-37.650116,-0.341769
1013,0.180599,-1.164567,0.515391,0.006444,-0.999434,0.014164,0.02279,-36.957809,-0.027057
1014,0.171397,-1.169355,0.520623,0.001626,-1.000236,0.019786,-0.795433,-40.923157,1.168761
1015,0.175998,-1.166961,0.520623,0.000822,-0.997023,0.029424,-0.669518,-40.923157,0.224624
1016,0.173698,-1.15978,0.528472,0.01849,-0.976945,0.014966,-1.802453,-40.671478,-0.278886
1017,0.1829,-1.15978,0.528472,0.015279,-0.985781,0.022195,-1.676688,-40.167816,0.035826
1018,0.192103,-1.157386,0.502309,-0.001587,-0.988992,0.010149,-1.110146,-38.972,0.350539
1019,0.192103,-1.157386,0.502309,0.011264,-0.985781,-0.03081,-0.543603,-38.153625,0.476453
1020,0.192103,-1.164567,0.544169,0.000822,-0.992205,0.003724,0.02279,-35.447128,0.098709
1021,0.194403,-1.15978,0.531088,0.017688,-0.989796,0.009346,-1.613656,-36.26535,-0.027057
1022,0.189802,-1.164567,0.554633,0.028128,-1.026738,0.010951,-1.9914,-39.160797,0.728283
1023,0.201305,-1.164567,0.570331,0.009657,-0.984976,0.019786,-1.676688,-43.063263,0.287656
1024,0.205906,-1.157386,0.544169,0.006444,-1.00666,-0.01796,-0.480721,-40.73436,-0.152972
1025,0.208207,-1.166961,0.53632,-0.001587,-0.990598,0.00774,-0.984231,-39.034882,0.350539
1026,0.208207,-1.166961,0.53632,0.012066,-1.004251,0.008542,-1.550773,-40.860275,0.791166
1027,0.208207,-1.166961,0.55725,0.02331,-1.009069,0.027013,-1.802453,-38.531372,-0.027057
1028,0.203606,-1.166961,0.562482,0.028128,-0.985781,-0.009929,-1.23606,-39.853104,0.035826
1029,0.210507,-1.157386,0.565098,0.002428,-0.98819,-0.002702,-0.417838,-42.74855,0.728283
1030,0.217409,-1.169355,0.578179,0.017688,-1.028344,0.012558,-0.858316,-45.518078,1.105878
1031,0.21971,-1.162173,0.593876,0.011264,-0.994614,0.010951,-0.543603,-42.119125,-0.593599
1032,0.21971,-1.162173,0.593876,0.016884,-0.999434,-0.017157,-1.550773,-47.469387,0.476453
1033,0.235814,-1.15978,0.554633,0.012868,-0.994614,0.016573,-1.676688,-44.51091,0.539336
1034,0.235814,-1.157386,0.575563,-0.009618,-1.016298,0.004527,-0.354806,-38.279541,-0.027057
1035,0.245017,-1.15978,0.583411,0.010459,-1.014691,-0.003504,-0.166008,-42.559753,0.224624
1036,0.233514,-1.166961,0.583411,-0.01042,-0.976945,0.01818,-0.417838,-42.74855,-0.027057
1037,0.251919,-1.152598,0.601725,0.027326,-0.987385,-0.004307,-0.858316,-33.684769,-0.593599
1038,0.263422,-1.15978,0.578179,0.005642,-0.993812,0.015771,-0.984231,-29.152729,-0.152972
1039,0.263422,-1.15978,0.578179,-0.003194,-0.997827,0.001313,-0.228891,-26.823828,0.161741
1040,0.249618,-1.154992,0.567715,-0.008816,-1.007465,0.006133,-0.543603,-27.516285,0.350539
1041,0.25652,-1.157386,0.562482,-0.000785,-0.999434,-0.009126,-0.543603,-22.984245,-0.593599
1042,0.268023,-1.162173,0.575563,0.008853,-0.984174,0.028619,-0.606635,-24.746754,-0.216004
1043,0.268023,-1.150205,0.572947,0.00002,-1.005858,0.001313,-0.984231,-27.516285,0.665251
1044,0.274925,-1.154992,0.586028,0.000822,-1.005054,0.030226,-0.984231,-28.523304,0.287656
1045,0.274925,-1.154992,0.586028,0.013673,-1.001842,-0.004307,-0.984231,-33.74765,0.413422
1046,0.272624,-1.154992,0.572947,0.004035,-1.003449,0.008542,-1.361975,-30.033985,-0.278886
1047,0.274925,-1.15978,0.586028,0.008853,-0.996221,0.025408,-0.921348,-28.712105,0.476453
1048,0.268023,-1.154992,0.565098,0.006444,-0.98337,0.029424,-1.047263,-33.432938,0.728283
1049,0.277226,-1.154992,0.593876,0.017688,-1.012282,0.006935,-1.110146,-33.74765,-0.593599
1050,0.284128,-1.150205,0.606957,0.000822,-1.005054,0.00774,-1.487741,-36.139439,0.098709
1051,0.284128,-1.150205,0.606957,0.012868,-1.01148,0.016573,-0.543603,-35.132416,1.672421
1052,0.279526,-1.150205,0.599109,0.000822,-0.996221,0.00774,-1.424858,-41.552582,-0.216004
1053,0.29333,-1.154992,0.599109,0.017688,-0.995418,0.035046,-1.298943,-41.804413,-0.278886
1054,0.302533,-1.147811,0.596492,0.001626,-0.984174,0.034241,-1.802453,-41.615616,0.791166
1055,0.297931,-1.150205,0.599109,0.000822,-0.984976,-0.016353,-1.424858,-41.426815,0.476453
1056,0.304833,-1.157386,0.588644,0.002428,-0.98819,0.019786,-0.921348,-41.4897,0.350539
1057,0.307134,-1.147811,0.617422,0.027326,-1.001842,-0.038037,-0.858316,-41.049072,-0.027057
1058,0.307134,-1.147811,0.617422,0.012066,-0.993007,-0.025188,-1.424858,-37.5242,-0.404801
1059,0.311735,-1.150205,0.596492,0.004837,-0.987385,-0.008322,-1.676688,-37.5242,0.350539
1060,0.318637,-1.152598,0.601725,0.006444,-0.963293,-0.00752,-1.110146,-35.258331,0.035826
1061,0.320938,-1.143023,0.575563,0.009657,-0.987385,0.018982,-1.424858,-36.643097,0.035826
1062,0.320938,-1.150205,0.580795,0.004035,-0.995418,0.023802,-1.047263,-40.923157,-0.027057
1063,0.320938,-1.150205,0.606957,0.012868,-0.982567,-0.005111,-1.23606,-39.349594,0.224624
1064,0.320938,-1.150205,0.606957,-0.002389,-0.963293,-0.014748,-1.676688,-37.587234,-0.216004
1065,0.334741,-1.15978,0.596492,0.008853,-1.003449,0.014966,-1.676688,-35.510014,-0.278886
1066,0.33014,-1.147811,0.588644,-0.009618,-0.982567,0.000511,-0.984231,-37.398437,0.098709
1067,0.337042,-1.154992,0.596492,0.012868,-1.001842,-0.005111,-0.858316,-39.601425,0.917081
1068,0.341643,-1.145417,0.617422,0.004035,-1.003449,0.001313,-0.669518,-39.916138,0.350539
1069,0.348545,-1.135842,0.627887,0.002428,-1.00666,-0.020369,-0.480721,-39.916138,0.350539
1070,0.343944,-1.145417,0.622654,0.003231,-0.987385,0.004527,-2.620825,-45.140484,0.665251
1071,0.343944,-1.145417,0.622654,0.020097,-0.984174,-0.005111,-1.424858,-40.923157,0.413422
1072,0.350846,-1.143023,0.609573,0.008051,-0.993007,-0.003504,-1.361975,-37.083725,0.224624
1073,0.360048,-1.150205,0.617422,0.008853,-1.013889,-0.001095,-0.858316,-36.831894,0.224624
1074,0.355447,-1.145417,0.61219,-0.008816,-1.001038,0.006133,-0.103125,-38.21666,0.665251
1075,0.36695,-1.150205,0.622654,0.01849,-0.98819,-0.011535,-1.613656,-41.112103,0.224624
1076,0.36695,-1.145417,0.627887,0.008051,-0.984174,0.017377,-0.795433,-32.614716,-0.467684
1077,0.36695,-1.145417,0.627887,0.009657,-1.012282,0.022195,-1.865485,-34.565876,0.413422
1078,0.376153,-1.145417,0.622654,-0.003996,-1.004251,0.00774,-1.173028,-35.0065,0.287656
1079,0.378453,-1.152598,0.6462,0.021704,-1.005054,-0.006717,-1.298943,-37.209488,-0.278886
1080,0.376153,-1.138236,0.640968,0.022506,-1.014691,0.014966,-0.543603,-22.669533,-0.530716
1081,0.392257,-1.143023,0.640968,0.022506,-1.017102,0.048697,-0.795433,-20.718374,1.294676
1082,0.394558,-1.143023,0.625271,-0.008011,-0.988992,0.035046,-0.543603,-28.14571,0.728283
1083,0.394558,-1.143023,0.625271,0.015279,-1.007465,0.003724,-0.040093,-19.774237,-0.908311
1084,0.392257,-1.150205,0.630503,0.012868,-1.027542,0.067972,-0.291923,-26.509115,1.294676
1085,0.387656,-1.150205,0.638352,0.002428,-1.01148,-0.045266,-1.173028,-49.168865,2.994153
1086,0.406061,-1.140629,0.617422,0.032948,-0.997023,-0.029204,-1.424858,-46.021591,0.035826
1087,0.40376,-1.138236,0.633119,0.029734,-0.984976,0.023802,-0.984231,-34.377075,-0.530716
1088,0.417564,-1.157386,0.643584,0.014475,-1.021117,0.063154,-1.676688,-39.853104,1.357708
1089,0.419865,-1.147811,0.635736,0.006444,-1.002645,0.00774,-1.865485,-46.336304,1.546506
1090,0.419865,-1.147811,0.635736,0.03375,-0.999434,-0.005913,-0.228891,-41.99321,0.476453
1091,0.429067,-1.152598,0.617422,0.003231,-0.992205,0.042272,-1.173028,-47.154675,-0.216004
1092,0.424466,-1.154992,0.625271,0.04419,-1.01148,-0.023582,-0.543603,-50.490597,2.238814
1093,0.43827,-1.152598,0.6462,-0.003996,-0.98337,-0.018764,-0.858316,-51.812477,1.168761
1094,0.445171,-1.154992,0.627887,-0.000785,-1.007465,-0.001898,-0.669518,-52.064159,0.287656
1095,0.447472,-1.150205,0.648817,0.007248,-0.982567,0.012558,-1.110146,-55.274315,0.035826
1096,0.447472,-1.150205,0.648817,0.008853,-0.984174,0.008542,-1.550773,-52.756615,0.539336
1097,0.461276,-1.145417,0.622654,-0.003996,-0.993007,0.027817,-1.047263,-46.399334,1.231793
1098,0.461276,-1.138236,0.61219,0.032143,-1.014691,-0.002702,-1.424858,-47.846981,0.350539
1099,0.461276,-1.140629,0.620038,0.024915,-1.012282,-0.000291,-2.306113,-38.21666,-0.278886
1100,0.470478,-1.138236,0.609573,-0.009618,-1.01148,0.010149,-1.676688,-37.964828,0.539336
1101,0.47508,-1.143023,0.630503,0.013673,-1.00666,0.00774,-0.858316,-39.664307,1.483474
1102,0.479681,-1.15978,0.640968,0.001626,-0.98819,0.014164,1.218757,-40.986191,-0.027057
1103,0.479681,-1.15978,0.640968,0.007248,-0.97293,0.015771,-1.550773,-54.770805,-0.216004
1104,0.484282,-1.150205,0.656665,0.004837,-1.002645,0.010951,-2.809623,-51.434734,-0.027057
1105,0.495785,-1.145417,0.6462,0.002428,-1.002645,0.020588,-2.809623,-55.40023,1.420591
1106,0.498086,-1.138236,0.630503,-0.034515,-0.998629,0.038257,-2.620825,-59.680286,0.539336
1107,0.51189,-1.145417,0.640968,0.009657,-0.956868,-0.012338,-0.480721,-68.114799,0.979964
1108,0.516491,-1.152598,0.627887,0.01849,-0.97293,-0.030006,-0.984231,-67.925995,0.539336
1109,0.516491,-1.152598,0.627887,-0.0048,-1.026738,0.009346,-0.921348,-65.659981,1.105878
1110,0.525693,-1.150205,0.638352,0.017688,-1.039588,-0.001898,-3.942558,-64.212334,1.168761
1111,0.539497,-1.147811,0.635736,0.007248,-0.976945,-0.019566,-1.9914,-60.876263,0.287656
1112,0.5487,-1.135842,0.640968,0.001626,-0.981765,0.011755,-1.424858,-62.827564,0.539336
1113,0.560203,-1.143023,0.656665,0.003231,-0.990598,0.016573,-1.928368,-59.239815,-0.027057
1114,0.555602,-1.131054,0.659281,-0.009618,-1.008267,0.002118,-1.613656,-55.148403,0.728283
1115,0.555602,-1.131054,0.659281,0.024112,-0.998629,-0.00752,-2.620825,-56.029655,0.728283
1116,0.564804,-1.133448,0.635736,0.004035,-0.987385,0.000511,-1.739571,-51.56065,0.602368
1117,0.564804,-1.145417,0.635736,-0.009618,-1.002645,0.038257,-1.550773,-50.742428,1.231793
1118,0.567105,-1.138236,0.620038,-0.003194,-0.996221,0.010951,-1.550773,-55.589027,0.476453
1119,0.578608,-1.138236,0.625271,-0.008816,-1.001038,0.030226,-0.984231,-57.540337,1.168761
1120,0.590111,-1.138236,0.635736,-0.005602,-0.994614,0.028619,-0.795433,-61.190968,1.420591
1121,0.594712,-1.140629,0.6462,0.008853,-0.993812,0.017377,0.148705,-59.995003,1.042996
1122,0.594712,-1.140629,0.6462,0.003231,-0.997827,-0.019566,-2.243081,-62.89045,1.042996
1123,0.601614,-1.140629,0.617422,0.013673,-1.017904,0.00774,-4.194388,-62.324055,0.665251
1124,0.606215,-1.138236,0.633119,-0.008011,-0.982567,0.015771,-1.802453,-61.820396,1.357708
1125,0.610817,-1.138236,0.617422,-0.01524,-0.991403,-0.022779,-0.984231,-63.205166,0.728283
1126,0.626921,-1.133448,0.651433,0.015279,-1.005054,-0.001898,-0.795433,-68.114799,0.854049
1127,0.643025,-1.133448,0.617422,0.008853,-0.998629,-0.009126,0.085822,-72.33197,1.294676
1128,0.643025,-1.133448,0.617422,0.01849,-1.017904,0.010951,-0.921348,-74.031448,1.483474
1129,0.647627,-1.140629,0.635736,-0.002389,-0.997827,0.023802,-3.439048,-78.500458,1.231793
1130,0.652228,-1.138236,0.61219,0.027326,-0.971323,-0.013944,-3.124336,-80.262817,1.231793
1131,0.647627,-1.123873,0.625271,0.020097,-1.014691,-0.029204,-1.865485,-82.277008,1.420591
1132,0.666032,-1.138236,0.599109,-0.000785,-1.001842,-0.003504,-0.228891,-76.234436,1.861218
1133,0.684437,-1.131054,0.588644,0.01849,-1.014691,-0.001898,-1.361975,-70.128983,1.420591
1134,0.684437,-1.131054,0.588644,0.019295,-1.001842,0.004527,0.211737,-60.058037,2.364728
1135,0.693639,-1.133448,0.570331,-0.008011,-0.987385,-0.000291,-1.361975,-58.547359,0.350539
1136,0.705142,-1.135842,0.601725,-0.012027,-0.98819,0.010951,-1.613656,-62.701649,-0.152972
1137,0.700541,-1.131054,0.606957,0.025719,-1.012282,0.035046,-3.061453,-64.464012,0.665251
1138,0.709744,-1.135842,0.606957,0.010459,-0.976945,0.008542,-0.73255,-61.254005,1.105878
1139,0.718946,-1.135842,0.606957,-0.008011,-0.978552,-0.031613,0.966927,-58.169765,0.665251
1140,0.723547,-1.123873,0.606957,0.038568,-1.023526,0.035848,-0.669518,-52.630703,0.602368
1141,0.723547,-1.123873,0.606957,0.017688,-1.024329,0.00292,-1.550773,-52.441902,1.042996
1142,0.739652,-1.126267,0.593876,0.028128,-1.024329,0.016573,-1.928368,-43.377975,1.294676
1143,0.748854,-1.135842,0.586028,0.000822,-0.989796,0.014966,-1.110146,-37.650116,0.665251
1144,0.760357,-1.126267,0.601725,-0.003194,-0.992205,-0.005913,-1.23606,-38.657288,0.476453
1145,0.760357,-1.119086,0.588644,-0.0048,-0.97775,-0.016353,-0.354806,-39.286713,-0.027057
1146,0.762658,-1.131054,0.59126,-0.001587,-0.997023,0.009346,-0.858316,-37.146606,0.161741
1147,0.762658,-1.131054,0.59126,0.019295,-1.013085,0.020588,-0.984231,-37.964828,0.476453
1148,0.771861,-1.119086,0.580795,-0.008816,-0.994614,-0.012338,-0.858316,-36.391266,0.287656
1149,0.76956,-1.138236,0.583411,0.012868,-0.999434,-0.009929,-1.23606,-32.236973,-0.027057
1150,0.783364,-1.131054,0.583411,0.004035,-0.98337,0.008542,-1.23606,-31.292837,0.224624
1151,0.771861,-1.126267,0.567715,0.004837,-1.002645,-0.028401,-1.550773,-30.978123,0.854049
1152,0.785664,-1.147811,0.570331,-0.011224,-0.993007,0.035848,-0.984231,-32.866398,-0.152972
1153,0.792566,-1.126267,0.567715,0.022506,-1.001038,0.01818,-1.173028,-34.943619,0.665251
1154,0.792566,-1.126267,0.567715,0.008853,-0.993812,-0.020369,-0.103125,-33.055344,0.476453
1155,0.785664,-1.135842,0.583411,0.022506,-1.019511,0.019786,-1.173028,-34.125248,0.728283
1156,0.794867,-1.131054,0.55725,-0.003194,-1.004251,-0.003504,-1.110146,-32.362888,0.035826
1157,0.799468,-1.121479,0.567715,-0.01042,-1.001038,-0.009929,-1.047263,-33.118225,0.224624
1158,0.808671,-1.131054,0.55725,-0.000785,-1.003449,0.023802,-1.173028,-40.104935,-0.216004
1159,0.808671,-1.128661,0.567715,-0.012831,-0.979354,0.03665,-0.921348,-46.336304,0.287656
1160,0.808671,-1.128661,0.567715,0.005642,-1.018707,0.014966,-1.487741,-54.204266,1.105878
1161,0.80637,-1.143023,0.549401,0.004035,-1.01148,-0.013142,-1.361975,-56.973793,1.168761
1162,0.815573,-1.131054,0.562482,0.034552,-1.021117,0.003724,-1.424858,-54.393063,1.483474
1163,0.827076,-1.135842,0.53632,0.008853,-0.984174,-0.004307,-1.424858,-44.322113,0.413422
1164,0.831677,-1.140629,0.533704,0.02893,-1.009873,-0.015551,-1.550773,-28.082678,0.224624
1165,0.829376,-1.131054,0.531088,0.004035,-0.990598,-0.015551,-0.480721,-17.31942,-1.097109
1166,0.829376,-1.131054,0.531088,-0.006405,-1.01148,-0.003504,-0.669518,-16.375282,-0.152972
1167,0.829376,-1.128661,0.538936,-0.003194,-1.001038,-0.003504,-0.166008,-18.830099,-0.152972
1168,0.836278,-1.133448,0.554633,0.003231,-1.004251,0.031833,-1.047263,-26.697912,-0.278886
1169,0.84318,-1.135842,0.528472,-0.012831,-0.987385,0.019786,-1.298943,-35.0065,0.665251
1170,0.845481,-1.133448,0.538936,0.002428,-0.997827,-0.012338,-1.676688,-44.57394,0.665251
1171,0.856984,-1.135842,0.578179,0.019295,-1.020313,0.081625,-1.361975,-44.196198,0.287656
1172,0.863886,-1.138236,0.544169,-0.008816,-0.964097,-0.016353,-1.424858,-52.252956,-0.719514
1173,0.863886,-1.138236,0.544169,0.039372,-0.984976,0.004527,-0.228891,-52.504787,1.798187
1174,0.866186,-1.133448,0.538936,0.004035,-0.993007,-0.017157,-1.110146,-50.805309,0.413422
1175,0.866186,-1.126267,0.512774,0.002428,-1.022722,-0.025188,-2.683708,-45.014568,0.791166
1176,0.868487,-1.135842,0.533704,-0.006405,-1.002645,-0.005111,-0.921348,-32.362888,0.665251
1177,0.882291,-1.143023,0.512774,0.024112,-0.987385,-0.005913,-1.298943,-21.473715,-0.404801
1178,0.87999,-1.145417,0.497077,0.014475,-0.981765,-0.002702,-1.173028,-18.892982,-0.152972
1179,0.87999,-1.145417,0.497077,-0.000785,-1.017102,0.027817,-2.180198,-25.816807,-0.278886
1180,0.882291,-1.138236,0.504926,-0.001587,-1.030753,0.022195,-1.298943,-30.978123,0.350539
1181,0.889193,-1.138236,0.504926,-0.012027,-1.001038,0.010149,-0.795433,-40.482529,0.728283
1182,0.882291,-1.133448,0.502309,0.011264,-1.009069,-0.022779,-1.23606,-47.469387,0.791166
1183,0.896095,-1.140629,0.510158,-0.017649,-1.004251,0.035848,-2.180198,-55.966625,0.539336
1184,0.893794,-1.135842,0.486612,0.032143,-1.027542,-0.001898,-0.984231,-59.113903,0.791166
1185,0.912199,-1.140629,0.483996,0.019295,-0.993812,-0.018764,-0.858316,-57.099709,0.917081
1186,0.912199,-1.140629,0.483996,0.025719,-1.000236,-0.05651,-0.795433,-55.589027,1.294676
1187,0.912199,-1.138236,0.48138,-0.007209,-1.007465,0.01818,-2.117315,-51.56065,1.357708
1188,0.926003,-1.145417,0.483996,0.010459,-1.024329,0.011755,-0.228891,-44.57394,1.168761
1189,0.921401,-1.133448,0.486612,0.009657,-0.982567,-0.009929,0.400534,-36.894775,1.105878
1190,0.939806,-1.143023,0.494461,-0.006405,-1.003449,0.029424,-0.795433,-33.432938,0.287656
1191,0.935205,-1.133448,0.468299,-0.011224,-1.001038,0.001313,-0.228891,-33.74765,0.161741
1192,0.935205,-1.133448,0.468299,-0.002389,-0.976945,0.027013,-1.865485,-37.587234,-0.216004
1193,0.937506,-1.131054,0.476147,-0.005602,-0.998629,0.026211,-2.809623,-46.084621,-0.278886
1194,0.939806,-1.131054,0.465683,-0.003996,-0.979354,-0.012338,-0.103125,-45.769909,0.979964
1195,0.95131,-1.135842,0.473531,-0.031302,-1.028344,0.010951,-0.73255,-51.686565,1.294676
1196,0.95361,-1.138236,0.455218,0.001626,-1.005858,-0.001898,-1.802453,-54.07835,1.231793
1197,0.960512,-1.128661,0.455218,0.014475,-0.986583,-0.005913,0.148705,-47.7841,1.042996
1198,0.960512,-1.128661,0.455218,0.00002,-1.005858,-0.009126,-0.795433,-42.874466,0.665251
1199,0.958211,-1.123873,0.439521,-0.011224,-1.013085,0.019786,-2.054283,-38.720169,0.224624
1200,0.967414,-1.131054,0.434289,0.010459,-0.98819,-0.004307,-1.298943,-37.020691,0.224624
1201,0.974316,-1.126267,0.431672,0.013673,-1.017102,0.013362,-1.424858,-37.776031,-0.027057
1202,0.976617,-1.128661,0.434289,0.003231,-1.014691,0.009346,-0.984231,-36.202469,-0.278886
1203,0.974316,-1.128661,0.439521,0.014475,-0.995418,-0.005111,-0.984231,-29.530474,0.602368
1204,0.962813,-1.128661,0.421208,-0.008011,-0.984174,-0.005111,-0.166008,-23.110161,-0.027057
1205,0.962813,-1.128661,0.421208,0.017688,-1.001842,-0.000291,-1.928368,-23.928532,-0.404801
1206,0.978917,-1.121479,0.418591,0.00002,-1.01148,0.018982,-1.676688,-21.536598,0.350539
1207,0.972015,-1.138236,0.418591,0.011264,-0.993812,0.010149,-1.23606,-18.452354,0.602368
1208,0.974316,-1.138236,0.429056,-0.01524,-1.001842,0.028619,-0.166008,-18.07476,-0.216004
1209,0.981218,-1.131054,0.436905,0.003231,-1.01148,0.00292,-0.040093,-17.31942,-0.782397
1210,0.995021,-1.135842,0.415975,0.005642,-1.00666,0.014966,-0.795433,-20.781258,0.224624
1211,0.995021,-1.135842,0.415975,-0.013633,-0.988992,-0.000291,-0.606635,-22.480736,0.287656
1212,0.98812,-1.126267,0.434289,-0.016042,-0.985781,0.021393,-0.795433,-20.718374,-0.090089
1213,0.98812,-1.121479,0.421208,0.003231,-0.995418,0.039863,-0.795433,-21.536598,-0.782397
1214,0.98812,-1.128661,0.444753,-0.008011,-1.003449,0.009346,-0.040093,-27.390369,-0.027057
1215,0.997322,-1.116692,0.452602,-0.024877,-0.97775,-0.013142,-1.23606,-35.132416,0.476453
1216,1.006525,-1.128661,0.400278,0.011264,-1.01148,0.006935,-1.047263,-32.677601,0.728283
1217,1.006525,-1.128661,0.400278,0.001626,-1.008267,0.031833,-0.795433,-30.159899,-0.656482
1218,1.004224,-1.131054,0.402894,0.004837,-0.976945,-0.013142,-1.424858,-31.418747,0.728283
1219,0.995021,-1.128661,0.395046,0.004035,-0.994614,-0.003504,-1.110146,-27.201572,0.602368
1220,0.999623,-1.121479,0.397662,0.008853,-0.997023,0.013362,-1.298943,-28.523304,-0.656482
1221,0.99042,-1.126267,0.389813,-0.003194,-1.000236,0.005331,-0.73255,-26.3832,-1.160141
1222,1.006525,-1.128661,0.40551,-0.002389,-0.990598,0.024604,-1.298943,-27.453253,0.602368
1223,1.011126,-1.126267,0.413359,-0.009618,-0.960081,0.04147,-1.23606,-26.949741,-0.152972
1224,1.011126,-1.126267,0.413359,0.000822,-0.995418,0.00292,-0.228891,-32.551685,-0.090089
1225,1.013426,-1.133448,0.376732,0.003231,-0.995418,-0.008322,0.02279,-32.300003,0.161741
1226,1.020328,-1.128661,0.384581,-0.0048,-1.005054,0.022997,-1.487741,-30.033985,1.168761
1227,1.011126,-1.128661,0.389813,-0.006405,-1.001842,-0.013944,-0.166008,-24.432041,1.483474
1228,1.015727,-1.133448,0.40551,-0.001587,-1.009069,0.031833,-1.298943,-28.775137,-0.090089
1229,1.020328,-1.126267,0.381965,-0.017649,-1.00666,0.013362,-0.417838,-31.607548,-0.152972
1230,1.020328,-1.126267,0.381965,0.010459,-1.001038,0.004527,-0.543603,-36.768864,0.287656
1231,1.020328,-1.128661,0.384581,-0.012027,-1.000236,-0.005913,-1.23606,-41.678497,0.854049
1232,1.02493,-1.131054,0.374116,0.022506,-1.030753,0.015771,-1.298943,-44.322113,1.357708
1233,1.02493,-1.133448,0.374116,0.011264,-1.017904,-0.010733,-0.040093,-46.462215,1.231793
1234,1.043335,-1.126267,0.374116,0.015279,-1.005054,-0.009929,0.085822,-43.566772,0.917081
1235,1.034132,-1.121479,0.376732,0.004837,-1.005054,-0.021173,-1.173028,-48.098812,1.231793
1236,1.034132,-1.123873,0.353187,0.022506,-1.012282,-0.025991,-1.550773,-49.357662,0.665251
1237,1.034132,-1.123873,0.353187,-0.023271,-1.018707,-0.005913,-0.103125,-46.462215,0.602368
1238,1.036433,-1.116692,0.363651,-0.003194,-1.018707,0.018982,-2.368996,-52.88253,0.791166
1239,1.043335,-1.128661,0.347954,-0.017649,-1.022722,0.017377,0.148705,-54.64489,1.798187
1240,1.050236,-1.121479,0.329641,0.019295,-1.030753,0.020588,-0.040093,-66.478203,1.546506
1241,1.054838,-1.128661,0.332257,0.007248,-1.007465,0.023802,-1.298943,-65.722862,0.350539
1242,1.059439,-1.133448,0.334873,0.012868,-0.963293,0.006133,-4.257271,-66.352432,0.539336
1243,1.059439,-1.133448,0.334873,-0.009618,-1.024329,0.004527,-4.383185,-57.225624,0.413422
1244,1.06404,-1.126267,0.329641,-0.023271,-1.013889,0.018982,3.044149,-50.113003,2.427611
1245,1.077844,-1.133448,0.308711,-0.001587,-0.966506,0.006133,0.526449,-52.12719,0.035826
1246,1.080145,-1.133448,0.313944,0.005642,-1.016298,-0.006717,0.589332,-55.714943,0.413422
1247,1.084746,-1.131054,0.287782,0.004837,-1.005858,0.03103,-2.243081,-55.714943,1.735304
1248,1.082445,-1.133448,0.285165,-0.000785,-0.968112,0.010951,-4.635015,-61.946312,1.357708
1249,1.082445,-1.133448,0.285165,-0.012831,-1.037982,-0.033219,-1.173028,-62.38694,0.539336
1250,1.084746,-1.133448,0.287782,-0.003996,-1.009069,0.03665,2.981117,-60.435631,1.861218
1251,1.093948,-1.133448,0.266852,0.005642,-0.978552,0.000511,0.463417,-62.198143,1.294676
1252,1.093948,-1.126267,0.290398,-0.003996,-0.997023,0.00292,-3.753761,-58.925102,-0.656482
1253,1.10085,-1.126267,0.269468,-0.026484,-1.001842,0.017377,-4.697898,-59.554531,1.294676
1254,1.103151,-1.128661,0.253771,-0.012027,-1.005054,0.002118,-0.984231,-61.757511,1.798187
1255,1.114654,-1.114298,0.248539,-0.008816,-0.980159,-0.017157,-0.543603,-64.589928,0.224624
1256,1.114654,-1.114298,0.248539,0.005642,-1.056453,0.000511,0.463417,-63.582909,-0.530716
1257,1.105452,-1.126267,0.253771,-0.040939,-1.018707,0.03665,2.288809,-61.883427,3.182951
1258,1.112353,-1.121479,0.238074,-0.014436,-0.960081,0.044681,-1.298943,-69.877159,1.861218
1259,1.123857,-1.116692,0.224993,-0.014436,-1.002645,-0.009126,-5.201408,-76.675064,-1.285907
1260,1.126157,-1.123873,0.211912,0.015279,-1.040391,-0.038037,-5.327323,-79.822189,2.112899
1261,1.133059,-1.126267,0.20668,0.012066,-1.036375,-0.019566,-2.432028,-76.171555,3.686611
1262,1.133059,-1.126267,0.20668,0.00002,-0.96249,-0.016353,1.407555,-71.136009,1.546506
1263,1.13536,-1.123873,0.18575,0.00002,-1.022722,0.028619,1.596353,-71.07312,-0.152972
1264,1.13536,-1.121479,0.196215,0.010459,-0.960081,-0.001095,1.659384,-69.751244,0.350539
1265,1.13536,-1.121479,0.167437,-0.017649,-1.017904,0.006133,-2.243081,-66.918831,1.483474
1266,1.13536,-1.126267,0.162204,-0.041742,-0.995418,0.016573,3.862371,-55.714943,4.190121
1267,1.142262,-1.126267,0.143891,-0.002389,-0.955262,0.011755,-1.676688,-49.04295,-2.544906
1268,1.149163,-1.135842,0.146507,-0.012027,-1.066894,0.015771,-4.823813,-47.7841,-0.719514
1269,1.149163,-1.135842,0.146507,0.050614,-1.014691,-0.057312,-8.222768,-43.126293,-0.278886
1270,1.142262,-1.121479,0.13081,-0.028893,-0.997827,-0.037235,-7.089832,-51.497765,-0.656482
1271,1.144562,-1.121479,0.115113,-0.022469,-1.013889,-0.019566,1.848182,-66.289406,4.441802
1272,1.149163,-1.131054,0.13081,-0.016847,-0.953655,-0.00752,4.680594,-69.81427,0.728283
1273,1.158366,-1.123873,0.122961,-0.033711,-0.967308,0.052714,0.337502,-70.128983,-0.908311
1274,1.144562,-1.131054,0.120345,-0.029695,-1.03236,0.045486,6.002477,-60.939289,4.504833
1275,1.144562,-1.131054,0.120345,-0.012831,-0.984174,0.047092,-2.243081,-63.456985,0.979964
1276,1.151464,-1.138236,0.091567,0.011264,-0.985781,0.018982,-16.153614,-59.743324,-3.929671
1277,1.153765,-1.128661,0.078486,-0.009618,-1.030753,-0.026795,-8.348682,-51.938244,1.735304
1278,1.158366,-1.128661,0.070637,-0.01042,-0.982567,-0.021975,3.044149,-43.000378,3.560696
1279,1.156065,-1.126267,0.078486,-0.016847,-1.008267,0.010951,5.058339,-46.525101,-1.097109
1280,1.146863,-1.140629,0.081102,-0.003996,-0.987385,0.030226,3.799489,-46.147503,-0.845429
1281,1.146863,-1.140629,0.081102,0.011264,-0.976143,-0.01796,-2.180198,-41.615616,0.979964
1282,1.160667,-1.123873,0.068021,-0.02568,-1.017904,0.028619,-3.816643,-38.027863,1.672421
1283,1.165268,-1.128661,0.070637,0.006444,-0.961686,-0.001095,-3.313133,-37.146606,-0.152972
1284,1.165268,-1.119086,0.073254,-0.022469,-1.035573,-0.005913,-3.439048,-42.307922,-1.411822
1285,1.160667,-1.123873,0.047092,-0.003996,-1.014691,0.026211,1.28164,-51.434734,2.175931
1286,1.165268,-1.128661,0.049708,-0.007209,-0.964097,-0.019566,-1.865485,-48.665203,0.854049
1287,1.169869,-1.126267,0.047092,0.00002,-1.018707,0.018982,-2.49491,-45.769909,0.161741
1288,1.169869,-1.126267,0.047092,-0.002389,-0.993812,0.021393,2.351692,-41.99321,-0.216004
1289,1.169869,-1.126267,0.034011,-0.000785,-0.998629,0.034241,-3.501931,-37.5242,0.350539
1290,1.179072,-1.140629,0.039243,-0.003996,-0.993812,0.033439,-0.040093,-37.020691,1.987133
1291,1.17447,-1.128661,0.028778,-0.01524,-0.991403,-0.005913,-7.215598,-35.950638,-1.600768
1292,1.17217,-1.133448,0.034011,0.000822,-1.01148,0.011755,-5.893866,-42.370953,-1.537737
1293,1.169869,-1.131054,0.010465,0.007248,-0.993812,-0.035628,-3.879676,-44.951538,0.476453
1294,1.169869,-1.131054,0.010465,-0.002389,-1.003449,-0.016353,-1.9914,-44.699856,1.861218
1295,1.17217,-1.131054,0.018314,0.004837,-1.010676,0.0752,9.212634,-50.742428,0.602368
1296,1.156065,-1.128661,0.018314,0.014475,-0.9392,0.08564,6.631902,-42.370953,-1.285907
1297,1.156065,-1.128661,0.018314,-0.000785,-0.993812,0.078414,-5.767951,-38.657288,0.098709
1298,1.158366,-1.126267,-0.018313,-0.0048,-0.979354,0.01818,-8.348682,-38.342575,1.483474
1299,1.169869,-1.126267,-0.010465,-0.020058,-0.986583,-0.025188,-9.859213,-40.79739,0.350539
1300,1.169869,-1.126267,-0.010465,0.004837,-1.013889,-0.036432,-6.01978,-38.090744,-1.537737
1301,1.167568,-1.128661,-0.005232,0.004837,-1.001038,-0.019566,-0.73255,-35.321213,0.098709
1302,1.153765,-1.121479,-0.018313,0.02331,-1.042801,0.030226,6.191275,-34.691788,2.490644
1303,1.17447,-1.128661,-0.015697,-0.013633,-1.015495,0.043077,12.296877,-35.258331,1.546506
1304,1.165268,-1.126267,-0.044475,-0.011224,-0.992205,0.063956,-1.865485,-41.112103,-0.593599
1305,1.165268,-1.131054,-0.049708,0.008853,-0.985781,0.016573,-6.963918,-44.385143,-0.467684
1306,1.169869,-1.133448,-0.062788,-0.023271,-0.97775,0.033439,-5.830833,-46.525101,0.854049
1307,1.169869,-1.133448,-0.062788,-0.011224,-1.029951,0.001313,-11.055181,-49.672375,-0.593599
1308,1.156065,-1.128661,-0.049708,-0.008011,-0.986583,-0.013142,0.589332,-46.336304,-0.782397
