Sequence,Geo-X,Geo-Y,Geo-Z,Acc-X,Acc-Y,Acc-Z,Gyro-X,Gyro-Y,Gyro-z
2,-0.88229,-0.020347,-0.614806,0.039372,-0.023659,-0.94876,-0.417838,0.241748,-0.719514
3,-0.877689,-0.022741,-0.622654,0.036159,-0.032492,-0.967233,0.02279,-0.70239,-0.530716
4,-0.889192,-0.00359,-0.635735,0.038568,-0.02125,-0.973657,-0.417838,-0.135848,-0.719514
5,-0.884591,-0.00359,-0.635735,0.02331,-0.027674,-0.983294,-0.606635,-0.513443,-0.593599
6,-0.88229,-0.005984,-0.633119,0.03375,-0.018037,-0.951171,-0.669518,-0.639358,-0.719514
7,-0.88229,-0.005984,-0.633119,0.043387,-0.020446,-0.98731,-0.354806,-0.009933,-0.341769
8,-0.87999,-0.020347,-0.620038,0.03375,-0.020446,-0.978475,-0.480721,-0.072965,-0.404801
9,-0.886892,-0.013165,-0.622654,0.027326,-0.02687,-0.98731,-0.228891,-0.513443,-0.467684
10,-0.886892,-0.015559,-0.633119,0.042583,-0.033297,-0.975263,-0.103125,-0.072965,-0.845429
11,-0.896094,-0.008378,-0.62527,0.03375,-0.028477,-0.973657,-0.417838,-0.576475,-0.782397
12,-0.87999,-0.013165,-0.622654,0.040979,-0.044539,-0.963217,-0.543603,-0.70239,-0.593599
13,-0.875389,-0.017953,-0.635735,0.040174,-0.018839,-0.971248,-0.354806,-0.45056,0.161741
14,-0.875389,-0.017953,-0.635735,0.039372,-0.025266,-0.97205,-0.480721,-0.072965,-0.593599
15,-0.87999,-0.013165,-0.643584,0.034552,-0.020446,-0.955988,-0.417838,-0.324646,-0.530716
16,-0.877689,-0.00359,-0.640967,0.024915,-0.018839,-0.969641,-0.669518,-0.261763,-0.719514
17,-0.877689,-0.008378,-0.612189,0.030537,-0.02687,-0.972855,-0.543603,-0.009933,-0.782397
18,-0.87999,-0.008378,-0.638351,0.047403,-0.03169,-0.97687,-0.543603,-0.072965,-0.152972
19,-0.877689,-0.008378,-0.601725,0.035356,-0.032492,-0.952775,-0.228891,-0.324646,-0.027057
20,-0.877689,-0.008378,-0.601725,0.034552,-0.023659,-0.968035,-0.73255,0.115982,-0.593599
21,-0.88229,-0.00359,-0.627886,0.02331,-0.022052,-0.965626,-0.543603,-0.135848,-0.467684
22,-0.889192,-0.010771,-0.62527,0.036159,-0.02687,-0.968035,-1.047263,-0.072965,-0.593599
23,-0.88229,-0.020347,-0.622654,0.040979,-0.022855,-0.995341,-0.354806,-0.387677,-0.845429
24,-0.87999,-0.020347,-0.654048,0.034552,-0.030886,-0.971248,-0.606635,-0.135848,-0.845429
25,-0.87999,-0.010771,-0.661897,0.037765,-0.022052,-0.973657,-0.73255,-0.324646,-0.530716
26,-0.868487,-0.005984,-0.648816,0.038568,-0.024461,-0.97687,-0.103125,-0.324646,-0.341769
27,-0.868487,-0.005984,-0.648816,0.043387,-0.025266,-0.963217,-0.291923,-0.324646,-0.216004
28,-0.884591,-0.025134,-0.635735,0.044994,-0.02687,-0.966428,-0.606635,-0.198731,-0.593599
29,-0.87999,-0.020347,-0.638351,0.034552,-0.01643,-0.969641,-0.103125,-0.009933,-0.782397
30,-0.877689,-0.015559,-0.635735,0.038568,-0.019644,-0.968837,-0.921348,0.430694,-0.404801
31,-0.87999,-0.010771,-0.627886,0.038568,-0.02125,-0.971248,-0.480721,0.241748,-0.593599
32,-0.884591,-0.013165,-0.620038,0.037765,-0.023659,-0.968837,-0.354806,-0.324646,-0.593599
33,-0.884591,-0.013165,-0.620038,0.049812,-0.035705,-0.961611,-0.040093,0.178865,-0.593599
34,-0.891493,-0.010771,-0.635735,0.030537,-0.014824,-0.967233,0.02279,-0.135848,-0.593599
35,-0.88229,-0.020347,-0.648816,0.043387,-0.036508,-0.968035,-0.354806,-0.135848,-0.593599
36,-0.87999,-0.020347,-0.62527,0.030537,-0.015628,-0.97205,-0.606635,-0.072965,-0.404801
37,-0.875389,-0.022741,-0.612189,0.034552,-0.019644,-0.970444,-0.669518,-0.387677,-0.530716
38,-0.893794,-0.027528,-0.617422,0.039372,-0.02125,-0.978475,-0.795433,0.178865,-0.782397
39,-0.893794,-0.027528,-0.617422,0.036159,-0.030886,-0.975263,-0.166008,-0.198731,-0.467684
40,-0.886892,-0.029922,-0.604341,0.027326,-0.019644,-0.979279,-0.606635,-0.261763,-0.530716
41,-0.884591,-0.025134,-0.627886,0.046599,-0.028477,-0.974459,-0.166008,-0.072965,-0.656482
42,-0.886892,-0.010771,-0.614806,0.028128,-0.030083,-0.985703,-0.103125,-0.135848,-0.404801
43,-0.884591,-0.017953,-0.614806,0.044994,-0.036508,-0.984901,-0.291923,-0.324646,-0.467684
44,-0.889192,-0.017953,-0.612189,0.02893,-0.02125,-0.974459,-0.291923,-0.45056,-0.719514
45,-0.889192,-0.008378,-0.609573,0.036963,-0.026068,-0.964019,-0.858316,-0.324646,-0.593599
46,-0.889192,-0.008378,-0.609573,0.034552,-0.022855,-0.971248,-0.166008,-0.387677,-0.090089
47,-0.891493,-0.020347,-0.614806,0.034552,-0.022855,-0.955186,-0.669518,-0.261763,-0.908311
48,-0.88229,-0.008378,-0.612189,0.036963,-0.026068,-0.980886,-0.543603,-0.009933,-0.467684
49,-0.889192,-0.017953,-0.609573,0.037765,-0.027674,-0.984901,-0.417838,-0.324646,-0.593599
50,-0.896094,-0.020347,-0.601725,0.027326,-0.025266,-0.95358,-0.543603,-0.45056,-0.593599
51,-0.884591,-0.017953,-0.640967,0.037765,-0.037312,-0.958397,-0.795433,0.241748,-0.341769
52,-0.884591,-0.017953,-0.640967,0.032948,-0.03169,-0.976066,-0.795433,-0.072965,-0.404801
53,-0.87999,-0.025134,-0.620038,0.029734,-0.020446,-0.977672,-0.795433,-0.261763,-0.530716
54,-0.877689,-0.022741,-0.617422,0.043387,-0.018839,-0.981688,-1.110146,0.619492,-0.027057
55,-0.886892,-0.017953,-0.630503,0.036963,-0.03169,-0.965626,-0.606635,-0.198731,-0.341769
56,-0.886892,-0.027528,-0.640967,0.039372,-0.020446,-0.958397,-0.040093,-0.009933,-0.530716
57,-0.891493,-0.029922,-0.620038,0.040979,-0.025266,-0.978475,-0.166008,0.05295,-0.782397
58,-0.891493,-0.025134,-0.604341,0.038568,-0.024461,-0.992932,-0.795433,-0.009933,-0.530716
59,-0.891493,-0.025134,-0.604341,0.032143,-0.035705,-0.978475,-0.543603,-0.135848,-0.782397
60,-0.893794,-0.025134,-0.617422,0.042583,-0.025266,-0.969641,-0.166008,-0.45056,-0.593599
61,-0.88229,-0.022741,-0.620038,0.03375,-0.022052,-0.960806,-1.047263,-0.261763,-0.530716
62,-0.896094,-0.029922,-0.640967,0.041781,-0.023659,-0.97687,-0.354806,-0.072965,-0.656482
63,-0.886892,-0.029922,-0.617422,0.034552,-0.035705,-0.980886,-0.417838,-0.45056,-0.908311
64,-0.891493,-0.020347,-0.638351,0.045796,-0.022855,-0.970444,-0.73255,-0.387677,-0.404801
65,-0.891493,-0.020347,-0.638351,0.037765,-0.020446,-0.990521,-0.417838,-0.261763,-0.908311
66,-0.889192,-0.027528,-0.633119,0.048205,-0.023659,-0.97687,0.02279,-0.261763,-0.404801
67,-0.889192,-0.017953,-0.614806,0.035356,-0.02125,-0.988112,-0.417838,-0.072965,-0.216004
68,-0.896094,-0.015559,-0.630503,0.035356,-0.020446,-0.992932,-0.480721,-0.261763,-1.097109
69,-0.889192,-0.020347,-0.622654,0.042583,-0.029281,-0.963217,-0.669518,-0.261763,-0.278886
70,-0.898395,-0.032316,-0.651432,0.042583,-0.029281,-0.974459,-0.73255,-0.009933,-0.530716
71,-0.898395,-0.032316,-0.651432,0.041781,-0.037312,-0.980886,-0.606635,-0.135848,-0.782397
72,-0.889192,-0.027528,-0.648816,0.02893,-0.028477,-0.970444,-0.354806,-0.198731,-0.467684
73,-0.902996,-0.017953,-0.630503,0.049812,-0.030083,-0.979279,-0.417838,-0.387677,-0.593599
74,-0.898395,-0.017953,-0.620038,0.046599,-0.022052,-0.957595,-0.606635,0.05295,-0.656482
75,-0.898395,-0.015559,-0.627886,0.043387,-0.02125,-0.970444,-0.480721,-0.45056,-0.467684
76,-0.893794,-0.010771,-0.6462,0.040174,-0.02687,-0.991325,-0.228891,-0.261763,-0.404801
77,-0.886892,-0.022741,-0.627886,0.040174,-0.03169,-0.978475,-0.858316,-0.261763,-0.656482
78,-0.886892,-0.022741,-0.627886,0.037765,-0.028477,-0.965626,-0.417838,0.178865,-0.530716
79,-0.88229,-0.022741,-0.609573,0.032143,-0.030083,-0.973657,-0.795433,-0.387677,-0.530716
80,-0.898395,-0.013165,-0.654048,0.045796,-0.030886,-0.965626,-0.480721,-0.135848,-0.719514
81,-0.884591,-0.010771,-0.654048,0.043387,-0.02125,-0.976066,-0.166008,-0.009933,-0.593599
82,-0.87999,-0.013165,-0.640967,0.036159,-0.028477,-0.980081,-0.166008,-0.45056,-0.782397
83,-0.88229,-0.013165,-0.638351,0.035356,-0.02125,-0.97205,-0.228891,-0.198731,-0.593599
84,-0.88229,-0.013165,-0.638351,0.040979,-0.022052,-0.992128,-0.480721,-0.009933,-0.530716
85,-0.88229,-0.010771,-0.620038,0.045796,-0.029281,-1.004978,-0.858316,-0.324646,-0.845429
86,-0.87999,-0.005984,-0.656665,0.040174,-0.02125,-0.988917,-0.795433,-0.387677,-0.656482
87,-0.88229,-0.008378,-0.651432,0.039372,-0.024461,-0.991325,-0.669518,-0.513443,-0.278886
88,-0.891493,-0.010771,-0.643584,0.039372,-0.03169,-0.992128,-0.669518,0.05295,-0.782397
89,-0.893794,-0.017953,-0.627886,0.036159,-0.030886,-0.960806,-0.606635,-0.261763,-0.404801
90,-0.893794,-0.017953,-0.627886,0.036159,-0.024461,-0.981688,0.02279,-0.072965,-0.467684
91,-0.875389,-0.015559,-0.643584,0.032948,-0.025266,-0.98731,-0.543603,-0.072965,-0.656482
92,-0.875389,-0.015559,-0.633119,0.032948,-0.009202,-0.968035,-0.417838,-0.387677,-0.530716
93,-0.877689,-0.010771,-0.643584,0.050614,-0.022052,-1.004978,-0.417838,-0.261763,-0.530716
94,-0.889192,-0.00359,-0.648816,0.031341,-0.02125,-0.964822,-0.228891,0.178865,-0.467684
95,-0.875389,-0.013165,-0.635735,0.032948,-0.022052,-0.967233,0.02279,-0.387677,-0.530716
96,-0.87999,-0.017953,-0.648816,0.04419,-0.02687,-0.973657,-0.354806,0.115982,-0.530716
97,-0.87999,-0.017953,-0.648816,0.04419,-0.029281,-0.967233,0.085822,0.115982,-0.656482
98,-0.870787,-0.022741,-0.640967,0.032948,-0.027674,-0.971248,-0.73255,-0.072965,-0.467684
99,-0.88229,-0.022741,-0.614806,0.035356,-0.01643,-0.984097,-0.606635,-0.45056,-0.152972
100,-0.88229,-0.017953,-0.614806,0.030537,-0.023659,-0.993734,-0.354806,-0.324646,-0.719514
101,-0.875389,-0.017953,-0.633119,0.046599,-0.02687,-0.969641,-0.291923,-0.261763,-0.530716
102,-0.88229,-0.017953,-0.633119,0.036963,-0.022052,-0.989719,-0.291923,-0.135848,-0.656482
103,-0.88229,-0.017953,-0.633119,0.030537,-0.027674,-0.984901,-0.543603,-0.261763,-0.593599
104,-0.886892,-0.005984,-0.622654,0.037765,-0.02687,-0.980081,-0.354806,-0.324646,-0.908311
105,-0.886892,-0.008378,-0.654048,0.039372,-0.030886,-0.990521,-0.669518,-0.198731,-1.160141
106,-0.886892,-0.013165,-0.643584,0.03375,-0.026068,-0.968035,-0.291923,-0.576475,-0.404801
107,-0.88229,-0.010771,-0.638351,0.042583,-0.029281,-0.981688,-0.606635,-0.261763,-0.027057
108,-0.889192,-0.017953,-0.654048,0.053827,-0.02125,-0.956791,-0.480721,0.05295,-0.404801
109,-0.87999,-0.015559,-0.638351,0.032948,-0.028477,-0.979279,-0.291923,-0.198731,-0.656482
110,-0.87999,-0.015559,-0.638351,0.043387,-0.03169,-0.972855,-0.166008,-0.324646,-0.782397
111,-0.875389,-0.010771,-0.612189,0.02893,-0.023659,-0.98249,-1.047263,-0.135848,-0.719514
112,-0.88229,-0.017953,-0.630503,0.045796,-0.025266,-0.964019,-0.354806,-0.198731,-0.404801
113,-0.898395,-0.010771,-0.638351,0.034552,-0.012415,-0.968837,-0.291923,-0.009933,-0.404801
114,-0.900696,-0.017953,-0.633119,0.02893,-0.023659,-0.960806,-0.480721,-0.324646,-0.027057
115,-0.889192,-0.010771,-0.638351,0.036159,-0.022052,-0.971248,-0.543603,-0.135848,-0.404801
116,-0.889192,-0.010771,-0.638351,0.036159,-0.024461,-0.991325,-0.480721,-0.072965,-0.404801
117,-0.889192,-0.005984,-0.630503,0.047403,-0.010808,-0.964019,-0.166008,-0.45056,-0.341769
118,-0.87999,-0.013165,-0.627886,0.046599,-0.034901,-0.960004,-0.354806,0.241748,-0.782397
119,-0.87999,-0.013165,-0.620038,0.036159,-0.028477,-0.996947,-0.73255,-0.198731,-0.656482
120,-0.889192,-0.010771,-0.622654,0.036963,-0.025266,-0.971248,-0.543603,-0.198731,-0.278886
121,-0.87999,-0.013165,-0.648816,0.03375,-0.015628,-0.995341,-0.228891,-0.261763,-0.216004
122,-0.87999,-0.013165,-0.648816,0.04419,-0.02687,-0.960004,-0.417838,-0.009933,0.098709
123,-0.891493,-0.017953,-0.633119,0.032143,-0.018839,-0.980081,-0.73255,-0.135848,-0.467684
124,-0.886892,-0.010771,-0.656665,0.049812,-0.030083,-0.970444,0.148705,0.115982,-0.530716
125,-0.886892,-0.015559,-0.630503,0.034552,-0.029281,-0.980081,-0.166008,-0.387677,-0.782397
126,-0.896094,-0.013165,-0.640967,0.040174,-0.025266,-0.960806,-0.040093,-0.387677,-0.278886
127,-0.884591,-0.027528,-0.651432,0.038568,-0.01643,-0.961611,0.02279,-0.009933,-0.467684
128,-0.891493,-0.020347,-0.627886,0.031341,-0.028477,-0.974459,-0.73255,-0.45056,-0.152972
129,-0.891493,-0.020347,-0.627886,0.034552,-0.018839,-0.97205,-0.543603,0.115982,-0.216004
130,-0.87999,-0.025134,-0.661897,0.038568,-0.018839,-0.977672,-0.417838,0.05295,-0.216004
131,-0.88229,-0.022741,-0.656665,0.040174,-0.025266,-0.97205,-0.166008,-0.324646,-0.341769
132,-0.88229,-0.008378,-0.622654,0.031341,-0.022855,-0.968837,-0.606635,-0.261763,-0.467684
133,-0.87999,-0.015559,-0.6462,0.042583,-0.018037,-0.990521,-0.606635,-0.261763,-0.530716
134,-0.877689,0.001197,-0.651432,0.049812,-0.027674,-0.971248,-0.417838,-0.198731,-0.719514
135,-0.877689,0.001197,-0.651432,0.043387,-0.020446,-0.977672,-0.669518,-0.198731,-0.341769
136,-0.87999,-0.005984,-0.648816,0.037765,-0.020446,-0.97687,-0.417838,0.115982,-0.530716
137,-0.877689,-0.017953,-0.654048,0.040979,-0.020446,-0.964822,-0.417838,-0.198731,-0.656482
138,-0.88229,-0.008378,-0.659281,0.046599,-0.020446,-0.975263,-0.354806,-0.135848,-0.216004
139,-0.884591,-0.008378,-0.617422,0.046599,-0.015628,-0.977672,-0.417838,0.178865,-0.656482
140,-0.891493,-0.010771,-0.656665,0.040979,-0.030886,-0.974459,-0.354806,-0.324646,-0.845429
141,-0.87999,-0.013165,-0.635735,0.037765,-0.028477,-0.995341,-0.166008,-0.639358,-0.845429
142,-0.87999,-0.013165,-0.635735,0.049009,-0.015628,-0.97205,-0.103125,-0.45056,-0.782397
143,-0.88229,-0.010771,-0.638351,0.030537,-0.030886,-0.973657,-0.228891,-0.45056,-0.656482
144,-0.891493,-0.017953,-0.640967,0.038568,-0.023659,-0.981688,-0.417838,-0.261763,-0.152972
145,-0.870787,-0.013165,-0.659281,0.039372,-0.02687,-0.961611,-0.228891,0.178865,-0.467684
146,-0.884591,-0.013165,-0.672362,0.02893,-0.035705,-0.970444,-0.228891,-0.009933,-0.656482
147,-0.884591,-0.025134,-0.656665,0.041781,-0.02125,-0.976066,-0.354806,-0.009933,-0.656482
148,-0.884591,-0.025134,-0.656665,0.04419,-0.026068,-0.968035,-0.291923,-0.198731,-0.404801
149,-0.87999,-0.015559,-0.661897,0.028128,-0.019644,-0.974459,-0.606635,0.115982,-0.845429
150,-0.886892,-0.025134,-0.617422,0.049009,-0.030886,-0.958397,-0.669518,-0.45056,-0.530716
151,-0.886892,-0.013165,-0.635735,0.032143,-0.02687,-0.989719,-0.73255,-0.324646,-0.467684
152,-0.886892,-0.013165,-0.620038,0.036963,-0.030083,-0.972855,-0.228891,0.430694,-0.341769
153,-0.87999,-0.022741,-0.648816,0.03375,-0.025266,-0.961611,-0.417838,-0.45056,-0.404801
154,-0.87999,-0.022741,-0.648816,0.045796,-0.01643,-0.983294,-0.795433,-0.576475,-1.034226
155,-0.898395,-0.022741,-0.656665,0.051418,-0.027674,-0.983294,-0.291923,-0.072965,-0.530716
156,-0.875389,-0.025134,-0.635735,0.035356,-0.035705,-0.985703,-0.417838,-0.324646,-0.216004
157,-0.87999,-0.022741,-0.640967,0.036963,-0.022052,-0.962413,-0.417838,-0.513443,-0.278886
158,-0.886892,-0.020347,-0.622654,0.046599,-0.017235,-0.966428,-0.354806,-0.198731,-1.034226
159,-0.87999,-0.032316,-0.630503,0.042583,-0.026068,-0.974459,-1.047263,0.178865,-0.467684
160,-0.877689,-0.017953,-0.617422,0.038568,-0.026068,-0.984901,-0.228891,-0.261763,-0.404801
161,-0.877689,-0.017953,-0.617422,0.032948,-0.019644,-0.97687,-0.669518,-0.45056,-0.782397
162,-0.88229,-0.017953,-0.635735,0.039372,-0.029281,-0.974459,-0.417838,-0.45056,-0.278886
163,-0.88229,-0.017953,-0.638351,0.036963,-0.020446,-0.968035,-0.040093,-0.009933,-0.530716
164,-0.889192,-0.025134,-0.627886,0.034552,-0.026068,-0.983294,-0.73255,-0.072965,-0.467684
165,-0.877689,-0.020347,-0.633119,0.036963,-0.023659,-0.951171,-0.166008,-0.135848,-0.404801
166,-0.886892,-0.020347,-0.638351,0.034552,-0.025266,-0.964822,-0.417838,-0.261763,-0.278886
167,-0.886892,-0.020347,-0.638351,0.041781,-0.030083,-0.988112,-0.606635,0.178865,-0.278886
168,-0.886892,-0.020347,-0.640967,0.037765,-0.023659,-0.985703,-0.166008,-0.135848,-0.782397
169,-0.88229,-0.008378,-0.640967,0.047403,-0.018839,-0.983294,0.02279,-0.198731,-0.152972
170,-0.891493,-0.020347,-0.635735,0.040979,-0.018037,-0.969641,-0.606635,0.241748,-0.656482
171,-0.875389,-0.025134,-0.643584,0.045796,-0.026068,-0.980081,-0.606635,-0.324646,-0.216004
172,-0.886892,-0.015559,-0.638351,0.036963,-0.025266,-0.95358,-0.354806,-0.072965,-0.404801
173,-0.886892,-0.015559,-0.638351,0.035356,-0.034901,-0.967233,-0.606635,-0.324646,-0.593599
174,-0.884591,-0.010771,-0.6462,0.032143,-0.034901,-0.974459,0.02279,-0.198731,-0.530716
175,-0.884591,-0.017953,-0.648816,0.022506,-0.02125,-0.963217,-0.480721,-0.135848,-0.593599
176,-0.886892,-0.020347,-0.612189,0.041781,-0.024461,-0.952775,-0.669518,-0.072965,-0.845429
177,-0.877689,-0.013165,-0.617422,0.043387,-0.025266,-0.955988,-0.73255,-0.198731,-0.278886
178,-0.884591,-0.017953,-0.630503,0.046599,-0.023659,-0.98249,-0.354806,-0.324646,-0.719514
179,-0.87999,-0.008378,-0.62527,0.035356,-0.02125,-0.968035,-0.354806,-0.387677,-0.530716
180,-0.87999,-0.008378,-0.62527,0.036963,-0.014824,-0.970444,-0.795433,-0.135848,-0.341769
181,-0.886892,-0.013165,-0.638351,0.040979,-0.018839,-0.958397,-0.669518,-0.261763,-0.404801
182,-0.87999,-0.015559,-0.612189,0.03375,-0.030083,-0.978475,-0.417838,-0.261763,-0.971194
183,-0.884591,-0.015559,-0.638351,0.041781,-0.02687,-0.994537,-0.228891,-0.639358,-0.656482
184,-0.884591,-0.027528,-0.620038,0.040174,-0.029281,-0.965626,-0.480721,-0.198731,-0.341769
185,-0.886892,-0.020347,-0.648816,0.037765,-0.013217,-0.988112,-0.417838,-0.198731,-0.656482
186,-0.886892,-0.020347,-0.648816,0.039372,-0.023659,-0.957595,-0.354806,-0.324646,-0.845429
187,-0.88229,-0.015559,-0.640967,0.03375,-0.014824,-0.993734,-0.795433,-0.639358,-0.404801
188,-0.886892,-0.025134,-0.627886,0.044994,-0.026068,-0.993734,-0.417838,0.05295,-0.719514
189,-0.886892,-0.020347,-0.669746,0.043387,-0.018839,-0.97205,-0.543603,-0.45056,-0.530716
190,-0.889192,-0.022741,-0.638351,0.037765,-0.018037,-0.960806,-0.480721,-0.324646,-0.467684
191,-0.88229,-0.034709,-0.640967,0.037765,-0.022052,-0.961611,-0.858316,-0.072965,-0.278886
192,-0.87999,-0.032316,-0.638351,0.038568,-0.022855,-0.963217,-0.354806,-0.261763,-0.782397
193,-0.87999,-0.032316,-0.638351,0.03375,-0.03169,-0.962413,-0.795433,-0.261763,-0.845429
194,-0.886892,-0.022741,-0.633119,0.042583,-0.030886,-0.97205,-0.354806,-0.198731,-0.278886
195,-0.891493,-0.029922,-0.620038,0.024112,-0.015628,-0.971248,-0.543603,-0.513443,-0.845429
196,-0.886892,-0.015559,-0.635735,0.03375,-0.02125,-0.975263,-0.606635,-0.513443,-0.593599
197,-0.88229,-0.010771,-0.62527,0.043387,-0.032492,-0.97687,-0.480721,-0.261763,-0.656482
198,-0.889192,-0.013165,-0.630503,0.046599,-0.02687,-0.968035,-0.291923,-0.387677,-0.530716
199,-0.889192,-0.013165,-0.630503,0.049009,-0.030083,-0.962413,-0.354806,-0.198731,-0.656482
200,-0.893794,-0.013165,-0.601725,0.037765,-0.022855,-0.980886,-0.291923,-0.45056,-0.593599
201,-0.886892,-0.017953,-0.627886,0.042583,-0.030083,-0.98249,-0.480721,-0.009933,-0.467684
202,-0.893794,-0.025134,-0.62527,0.036963,-0.030083,-0.980886,-0.480721,-0.261763,-0.782397
203,-0.886892,-0.022741,-0.635735,0.044994,-0.018839,-0.964019,-0.606635,-0.576475,-0.341769
204,-0.886892,-0.022741,-0.633119,0.036963,-0.037312,-0.973657,-0.417838,0.115982,-0.467684
205,-0.886892,-0.022741,-0.633119,0.039372,-0.023659,-0.962413,-0.354806,-0.198731,-0.593599
206,-0.87999,-0.027528,-0.651432,0.038568,-0.03169,-0.951171,-0.354806,-0.513443,-0.341769
207,-0.891493,-0.027528,-0.638351,0.037765,-0.020446,-0.964019,-0.417838,-0.072965,-0.719514
208,-0.88229,-0.020347,-0.62527,0.040979,-0.014824,-0.980886,-0.354806,-0.576475,-0.341769
209,-0.891493,-0.015559,-0.6462,0.035356,-0.024461,-0.962413,-0.291923,-0.45056,-0.404801
210,-0.893794,-0.010771,-0.654048,0.029734,-0.020446,-0.970444,-0.543603,-0.324646,-0.152972
211,-0.88229,-0.027528,-0.635735,0.048205,-0.033297,-0.995341,-0.606635,-0.261763,-0.719514
212,-0.88229,-0.027528,-0.635735,0.036963,-0.036508,-0.986506,-0.040093,0.304779,-0.090089
213,-0.898395,-0.022741,-0.6462,0.039372,-0.022052,-0.97687,-0.354806,-0.135848,-0.404801
214,-0.88229,-0.020347,-0.648816,0.044994,-0.022855,-0.977672,-0.103125,0.241748,-0.467684
215,-0.884591,-0.022741,-0.6462,0.049009,-0.025266,-0.980081,-0.291923,-0.387677,-0.782397
216,-0.889192,-0.022741,-0.638351,0.037765,-0.038917,-0.946351,0.02279,0.05295,-0.656482
217,-0.87999,-0.025134,-0.635735,0.029734,-0.024461,-0.985703,-0.480721,-0.072965,-0.341769
218,-0.87999,-0.025134,-0.635735,0.039372,-0.023659,-0.975263,-0.291923,-0.009933,-0.908311
219,-0.886892,-0.022741,-0.633119,0.049009,-0.020446,-0.962413,-0.795433,-0.009933,-0.593599
220,-0.873088,-0.020347,-0.640967,0.040174,-0.019644,-0.971248,-0.228891,-0.072965,-0.530716
221,-0.877689,-0.022741,-0.654048,0.044994,-0.017235,-0.984097,-0.166008,-0.135848,-0.467684
222,-0.884591,-0.025134,-0.6462,0.039372,-0.03169,-0.984901,-0.166008,-0.135848,-0.593599
223,-0.875389,-0.008378,-0.640967,0.034552,-0.025266,-0.980081,-0.291923,0.05295,-0.467684
224,-0.88229,-0.025134,-0.606957,0.03375,-0.03169,-0.968837,-0.858316,-0.387677,-0.341769
225,-0.88229,-0.025134,-0.606957,0.031341,-0.032492,-0.964019,-0.543603,0.493577,0.035826
226,-0.87999,-0.008378,-0.638351,0.043387,-0.030886,-0.993734,0.02279,-0.45056,-0.341769
227,-0.877689,-0.008378,-0.638351,0.041781,-0.022052,-0.962413,-0.606635,0.05295,0.035826
228,-0.87999,-0.027528,-0.654048,0.038568,-0.029281,-0.979279,-0.354806,-0.261763,-0.593599
229,-0.884591,-0.013165,-0.643584,0.035356,-0.033297,-0.963217,-0.291923,-0.261763,-0.782397
230,-0.886892,-0.020347,-0.640967,0.039372,-0.027674,-0.978475,-0.543603,-0.009933,-0.971194
231,-0.886892,-0.020347,-0.640967,0.041781,-0.014824,-1.000159,-0.040093,-0.576475,-0.782397
232,-0.884591,-0.020347,-0.627886,0.036963,-0.022052,-0.967233,-0.480721,-0.198731,-0.404801
233,-0.88229,-0.020347,-0.643584,0.032143,-0.014824,-0.972855,-0.480721,-0.135848,-0.341769
234,-0.87999,-0.020347,-0.640967,0.039372,-0.029281,-0.950366,-0.291923,0.05295,-0.341769
235,-0.884591,-0.025134,-0.633119,0.037765,-0.014824,-0.970444,-0.543603,0.241748,-0.593599
236,-0.886892,-0.022741,-0.630503,0.028128,-0.027674,-0.988917,-0.543603,-0.198731,-0.656482
237,-0.886892,-0.022741,-0.630503,0.036159,-0.022052,-0.963217,-0.795433,-0.135848,-0.845429
238,-0.87999,-0.017953,-0.635735,0.030537,-0.024461,-0.970444,-0.040093,-0.324646,-0.656482
239,-0.889192,-0.017953,-0.643584,0.038568,-0.026068,-0.984097,-0.291923,-0.009933,-0.404801
240,-0.889192,-0.015559,-0.630503,0.026521,-0.01643,-0.943942,0.02279,-0.135848,-0.278886
241,-0.889192,-0.008378,-0.633119,0.038568,-0.023659,-0.973657,-0.543603,-0.198731,-0.216004
242,-0.886892,-0.020347,-0.622654,0.035356,-0.015628,-0.967233,-0.669518,-0.324646,-0.530716
243,-0.870787,-0.027528,-0.669746,0.027326,-0.02125,-0.999356,-0.669518,0.05295,-0.593599
244,-0.870787,-0.027528,-0.669746,0.036159,-0.029281,-0.972855,0.02279,-0.387677,-0.845429
245,-0.877689,-0.027528,-0.617422,0.041781,-0.026068,-0.970444,-0.354806,-0.135848,-0.278886
246,-0.886892,-0.015559,-0.6462,0.032948,-0.018037,-0.973657,-0.795433,0.367662,-0.216004
247,-0.87999,-0.017953,-0.635735,0.040979,-0.022855,-0.97687,-0.480721,-0.387677,-0.404801
248,-0.886892,-0.015559,-0.640967,0.045796,-0.011613,-0.986506,-0.354806,-0.198731,-0.719514
249,-0.87999,-0.020347,-0.633119,0.052221,-0.026068,-0.957595,-0.606635,-0.072965,-0.404801
250,-0.87999,-0.020347,-0.633119,0.02893,-0.019644,-0.984901,-0.291923,-0.198731,-0.719514
251,-0.87999,-0.020347,-0.638351,0.035356,-0.030083,-0.967233,-0.166008,-0.261763,-0.719514
252,-0.891493,-0.015559,-0.640967,0.040174,-0.02687,-0.996143,-0.480721,-0.198731,-0.782397
253,-0.893794,-0.025134,-0.651432,0.040174,-0.025266,-1.006585,-0.606635,-0.765273,-0.593599
254,-0.891493,-0.020347,-0.627886,0.037765,-0.022052,-0.98731,-0.480721,0.241748,-0.341769
255,-0.886892,-0.010771,-0.648816,0.036963,-0.03169,-0.955186,-0.480721,-0.513443,-0.782397
256,-0.886892,-0.010771,-0.648816,0.028128,-0.018839,-0.973657,-0.354806,-0.072965,-0.278886
257,-0.873088,-0.022741,-0.635735,0.036963,-0.026068,-0.966428,-0.543603,-0.198731,-0.656482
258,-0.87999,-0.029922,-0.661897,0.040174,-0.023659,-0.984901,0.02279,-0.009933,-0.782397
259,-0.889192,-0.020347,-0.6462,0.043387,-0.041327,-0.968035,-0.103125,-0.261763,-0.278886
260,-0.889192,-0.027528,-0.612189,0.038568,-0.014824,-0.985703,-0.040093,-0.324646,-0.593599
261,-0.889192,-0.020347,-0.6462,0.03375,-0.023659,-0.984097,-0.291923,-0.072965,-0.656482
262,-0.877689,-0.015559,-0.648816,0.035356,-0.022855,-0.974459,-0.480721,0.05295,-0.404801
263,-0.877689,-0.015559,-0.648816,0.026521,-0.029281,-0.989719,-0.73255,-0.261763,-0.278886
264,-0.873088,-0.022741,-0.643584,0.036963,-0.022855,-0.971248,-0.354806,-0.639358,-0.467684
265,-0.886892,-0.013165,-0.664513,0.030537,-0.014824,-0.97687,-0.166008,-0.324646,-0.782397
266,-0.886892,-0.017953,-0.640967,0.026521,-0.013217,-0.967233,-0.354806,-0.324646,-0.656482
267,-0.886892,-0.020347,-0.627886,0.034552,-0.019644,-0.976066,-0.354806,-0.198731,-0.971194
268,-0.88229,-0.017953,-0.643584,0.036963,-0.027674,-0.973657,-0.354806,-0.261763,-0.593599
269,-0.88229,-0.017953,-0.643584,0.043387,-0.019644,-0.989719,-0.543603,0.05295,-0.530716
270,-0.886892,-0.017953,-0.6462,0.040979,-0.025266,-0.978475,-0.291923,0.05295,-1.097109
271,-0.88229,-0.020347,-0.661897,0.042583,-0.033297,-0.960806,-0.291923,-0.387677,-0.782397
272,-0.896094,-0.010771,-0.667129,0.029734,-0.022855,-0.978475,-0.291923,-0.324646,-0.782397
273,-0.889192,-0.013165,-0.638351,0.036159,-0.022052,-0.97205,-0.543603,-0.198731,-0.782397
274,-0.896094,-0.020347,-0.638351,0.04419,-0.040523,-0.973657,-0.480721,-0.072965,-0.782397
275,-0.87999,-0.034709,-0.643584,0.039372,-0.018037,-0.990521,-0.543603,-0.072965,-0.593599
276,-0.87999,-0.034709,-0.643584,0.044994,-0.033297,-0.981688,-0.73255,-0.135848,-0.593599
277,-0.893794,-0.015559,-0.638351,0.032948,-0.020446,-0.961611,-0.417838,-0.513443,-0.341769
278,-0.884591,-0.022741,-0.640967,0.037765,-0.017235,-0.960806,-0.166008,0.05295,-0.656482
279,-0.884591,-0.017953,-0.633119,0.040174,-0.025266,-0.990521,-0.480721,-0.261763,-0.530716
280,-0.893794,-0.022741,-0.612189,0.035356,-0.023659,-0.979279,-0.417838,-0.009933,-0.404801
281,-0.88229,-0.010771,-0.630503,0.040979,-0.033297,-0.954382,-0.228891,-0.072965,-0.467684
282,-0.88229,-0.010771,-0.630503,0.040979,-0.028477,-0.980081,-0.354806,0.05295,-0.027057
283,-0.877689,-0.025134,-0.640967,0.038568,-0.032492,-0.968035,-0.103125,-0.261763,-0.593599
284,-0.891493,-0.025134,-0.627886,0.041781,-0.035705,-1.007387,-0.166008,0.241748,-0.467684
285,-0.886892,-0.015559,-0.643584,0.051418,-0.02687,-0.968035,-0.606635,0.115982,-0.278886
286,-0.891493,-0.015559,-0.654048,0.038568,-0.028477,-0.974459,-0.417838,-0.072965,-0.216004
287,-0.886892,-0.017953,-0.659281,0.040174,-0.022855,-0.976066,-0.606635,-0.513443,-0.908311
288,-0.886892,-0.017953,-0.659281,0.035356,-0.030886,-0.976066,-0.417838,-0.009933,-0.530716
289,-0.886892,-0.015559,-0.661897,0.030537,-0.022052,-0.969641,-0.669518,0.05295,-0.782397
290,-0.886892,-0.017953,-0.627886,0.03375,-0.022855,-0.976066,-0.543603,-0.198731,-0.530716
291,-0.886892,-0.022741,-0.633119,0.036963,-0.02687,-0.973657,-0.166008,-0.45056,-0.656482
292,-0.886892,-0.022741,-0.622654,0.045796,-0.024461,-0.988112,-0.543603,-0.135848,-0.656482
293,-0.875389,-0.015559,-0.638351,0.034552,-0.022052,-0.967233,-0.669518,0.115982,-0.908311
294,-0.886892,-0.020347,-0.635735,0.036159,-0.026068,-0.959202,-0.795433,-0.198731,-0.656482
295,-0.886892,-0.020347,-0.635735,0.050614,-0.025266,-0.980081,-0.103125,0.178865,-0.845429
296,-0.87999,-0.022741,-0.62527,0.037765,-0.022052,-0.970444,-0.543603,-0.387677,-0.341769
297,-0.87999,-0.020347,-0.633119,0.036963,-0.02687,-0.943942,-0.228891,-0.387677,-0.656482
298,-0.884591,-0.010771,-0.62527,0.046599,-0.02687,-0.968837,-0.166008,0.115982,-1.034226
299,-0.884591,-0.008378,-0.640967,0.03375,-0.023659,-0.967233,-0.543603,-0.45056,-0.656482
300,-0.884591,-0.015559,-0.656665,0.038568,-0.030886,-0.984901,-0.480721,-0.324646,-0.530716
301,-0.884591,-0.015559,-0.656665,0.044994,-0.030083,-0.97205,-0.73255,0.05295,-0.404801
302,-0.87999,-0.015559,-0.643584,0.043387,-0.01643,-0.969641,-0.606635,-0.198731,-0.719514
303,-0.884591,-0.025134,-0.622654,0.044994,-0.026068,-0.966428,-0.606635,0.05295,-0.467684
304,-0.886892,-0.015559,-0.633119,0.038568,-0.018839,-0.960806,-0.417838,-0.135848,-0.090089
305,-0.889192,-0.025134,-0.640967,0.037765,-0.01643,-0.986506,-0.040093,-0.261763,-0.530716
306,-0.891493,-0.020347,-0.622654,0.03375,-0.038917,-0.969641,-0.103125,-0.135848,-0.656482
307,-0.886892,-0.025134,-0.599108,0.045796,-0.028477,-0.998554,0.085822,-0.009933,-0.656482
308,-0.886892,-0.025134,-0.599108,0.032948,-0.028477,-0.983294,-0.417838,-0.513443,-0.845429
309,-0.889192,-0.005984,-0.640967,0.032143,-0.013217,-0.98731,-0.669518,-0.072965,-0.404801
310,-0.886892,-0.013165,-0.635735,0.032948,-0.017235,-0.990521,-0.354806,-0.576475,-0.656482
311,-0.889192,-0.020347,-0.640967,0.035356,-0.02687,-0.983294,-0.606635,-0.324646,-0.845429
312,-0.884591,-0.017953,-0.614806,0.03375,-0.018839,-0.984097,-0.103125,-0.072965,-0.530716
313,-0.884591,-0.010771,-0.635735,0.037765,-0.02125,-0.976066,-0.291923,0.430694,-0.782397
314,-0.884591,-0.010771,-0.635735,0.038568,-0.018839,-0.967233,-0.354806,0.178865,-0.278886
315,-0.886892,-0.015559,-0.638351,0.031341,-0.030083,-0.98249,0.085822,-0.324646,-0.593599
316,-0.891493,-0.027528,-0.612189,0.034552,-0.025266,-0.986506,-0.166008,-0.261763,-0.593599
317,-0.88229,-0.017953,-0.638351,0.030537,-0.012415,-0.989719,-0.228891,-0.513443,-0.593599
318,-0.900696,-0.013165,-0.643584,0.036963,-0.026068,-0.974459,-0.354806,-0.009933,-0.593599
319,-0.886892,-0.027528,-0.609573,0.035356,-0.033297,-0.968837,-0.480721,-0.135848,-0.467684
320,-0.886892,-0.027528,-0.609573,0.037765,-0.022052,-0.965626,-0.417838,0.115982,-0.467684
321,-0.891493,-0.025134,-0.62527,0.046599,-0.029281,-0.988917,-0.354806,0.115982,-0.593599
322,-0.893794,-0.029922,-0.62527,0.04419,-0.022855,-0.988917,-0.417838,-0.072965,-0.719514
323,-0.884591,-0.022741,-0.630503,0.027326,-0.009202,-0.977672,-0.480721,-0.324646,-0.908311
324,-0.902996,-0.008378,-0.622654,0.040174,-0.022855,-0.963217,-0.543603,-0.45056,-0.404801
325,-0.88229,-0.010771,-0.612189,0.039372,-0.03169,-0.966428,-0.417838,-0.261763,-0.656482
326,-0.898395,-0.010771,-0.609573,0.040979,-0.02687,-0.988112,-0.291923,0.115982,-0.467684
327,-0.898395,-0.010771,-0.609573,0.036963,-0.027674,-0.977672,-0.228891,0.241748,-0.530716
328,-0.891493,-0.022741,-0.622654,0.030537,-0.025266,-0.965626,-0.103125,-0.261763,-0.530716
329,-0.891493,-0.022741,-0.659281,0.040979,-0.020446,-0.98249,-0.228891,0.115982,-0.719514
330,-0.886892,-0.010771,-0.654048,0.030537,-0.009202,-0.967233,-0.73255,-0.387677,-0.782397
331,-0.884591,-0.017953,-0.633119,0.043387,-0.022052,-0.961611,-0.166008,-0.45056,-0.719514
332,-0.891493,-0.013165,-0.62527,0.036159,-0.015628,-0.965626,-0.73255,-0.513443,-0.656482
333,-0.891493,-0.013165,-0.62527,0.037765,-0.032492,-0.971248,-0.795433,-0.198731,-0.782397
334,-0.886892,-0.015559,-0.6462,0.042583,-0.02687,-0.977672,-0.291923,-0.135848,-1.034226
335,-0.893794,-0.013165,-0.654048,0.039372,-0.033297,-0.93832,-0.291923,-0.324646,-0.530716
336,-0.88229,-0.017953,-0.638351,0.041781,-0.032492,-0.97687,-0.480721,-0.198731,-0.656482
337,-0.88229,-0.010771,-0.638351,0.041781,-0.03169,-0.97687,-0.103125,-0.072965,-0.152972
338,-0.893794,-0.015559,-0.633119,0.045796,-0.034099,-0.968035,-0.480721,0.115982,-0.593599
339,-0.893794,-0.015559,-0.633119,0.043387,-0.026068,-0.976066,-0.669518,-0.324646,-0.341769
340,-0.889192,-0.020347,-0.62527,0.032143,-0.034901,-0.97205,-0.543603,-0.009933,-0.467684
341,-0.886892,-0.010771,-0.630503,0.034552,-0.022052,-0.951171,-0.480721,-0.324646,-0.530716
342,-0.891493,-0.008378,-0.627886,0.042583,-0.023659,-0.963217,-0.291923,-0.387677,-0.782397
343,-0.902996,-0.010771,-0.609573,0.036159,-0.022052,-0.99775,-0.354806,-0.513443,-0.656482
344,-0.891493,-0.005984,-0.620038,0.032948,-0.019644,-0.992932,-0.291923,-0.324646,-0.467684
345,-0.877689,-0.008378,-0.617422,0.038568,-0.026068,-0.981688,0.148705,-0.009933,-0.719514
346,-0.877689,-0.008378,-0.617422,0.032143,-0.02687,-0.975263,-0.417838,-0.261763,-0.656482
347,-0.893794,-0.017953,-0.6462,0.03375,-0.022052,-0.98249,-0.669518,-0.198731,-0.719514
348,-0.893794,-0.005984,-0.633119,0.032143,-0.02125,-0.986506,-0.480721,0.304779,-0.530716
349,-0.88229,-0.022741,-0.635735,0.045796,-0.030886,-0.962413,-0.480721,-0.324646,-0.404801
350,-0.884591,-0.020347,-0.654048,0.040174,-0.018839,-0.973657,-0.040093,-0.072965,-0.404801
351,-0.893794,0.001197,-0.659281,0.039372,-0.027674,-0.985703,-0.417838,-0.324646,-0.719514
352,-0.893794,0.001197,-0.659281,0.038568,-0.025266,-0.979279,-0.606635,-0.072965,-1.097109
353,-0.889192,-0.010771,-0.627886,0.031341,-0.020446,-0.972855,-0.543603,-0.072965,-0.656482
354,-0.889192,-0.005984,-0.635735,0.041781,-0.025266,-0.980081,-0.417838,-0.45056,-0.467684
355,-0.889192,0.001197,-0.635735,0.053025,-0.025266,-0.980886,-0.669518,-0.324646,-0.341769
356,-0.893794,-0.001197,-0.627886,0.038568,-0.017235,-0.97205,-0.291923,-0.513443,-0.467684
357,-0.889192,-0.00359,-0.630503,0.038568,-0.025266,-0.973657,-0.480721,-0.198731,-0.845429
358,-0.884591,-0.005984,-0.622654,0.02893,-0.022855,-0.963217,-0.669518,-0.45056,-1.097109
359,-0.884591,-0.005984,-0.622654,0.040174,-0.030083,-0.981688,-0.417838,-0.135848,-0.593599
360,-0.884591,-0.010771,-0.617422,0.036963,-0.022855,-0.964019,-0.606635,-0.072965,-0.530716
361,-0.889192,-0.008378,-0.606957,0.039372,-0.030886,-0.966428,-0.291923,-0.198731,-0.656482
362,-0.891493,0.001197,-0.617422,0.049812,-0.029281,-0.986506,-0.166008,-0.198731,-0.090089
363,-0.886892,-0.010771,-0.6462,0.039372,-0.025266,-0.968035,-0.354806,-0.009933,-0.404801
364,-0.893794,-0.015559,-0.617422,0.032948,-0.019644,-0.976066,0.148705,-0.45056,-0.341769
365,-0.893794,-0.015559,-0.617422,0.041781,-0.025266,-0.968035,-0.543603,0.05295,-0.530716
366,-0.88229,0.001197,-0.643584,0.047403,-0.030886,-0.964822,0.02279,-0.072965,-0.404801
367,-0.891493,-0.00359,-0.617422,0.037765,-0.018839,-0.963217,-0.417838,-0.072965,-0.467684
368,-0.886892,-0.005984,-0.601725,0.040979,-0.027674,-0.978475,-0.166008,-0.009933,-0.341769
369,-0.886892,-0.010771,-0.62527,0.02893,-0.027674,-0.95358,-0.606635,-0.135848,-0.530716
370,-0.88229,-0.005984,-0.633119,0.039372,-0.034099,-0.989719,-0.291923,-0.198731,-0.090089
371,-0.88229,-0.005984,-0.633119,0.024915,-0.041327,-0.966428,-0.417838,-0.639358,-0.782397
372,-0.884591,-0.008378,-0.633119,0.039372,-0.022052,-0.988112,-0.669518,-0.135848,-0.341769
373,-0.87999,-0.008378,-0.620038,0.038568,-0.030886,-0.984097,-0.354806,0.05295,-0.341769
374,-0.889192,-0.010771,-0.609573,0.04419,-0.02687,-0.970444,-0.291923,0.05295,-1.034226
375,-0.88229,-0.010771,-0.62527,0.045796,-0.028477,-0.979279,-0.166008,-0.324646,-0.782397
376,-0.870787,-0.010771,-0.638351,0.044994,-0.022052,-0.962413,-0.103125,-0.072965,-0.593599
377,-0.88229,-0.008378,-0.648816,0.037765,-0.025266,-0.961611,-0.354806,-0.513443,-0.530716
378,-0.88229,-0.008378,-0.648816,0.036159,-0.023659,-0.975263,-0.103125,-0.072965,-0.404801
379,-0.886892,-0.015559,-0.62527,0.037765,-0.015628,-0.971248,-0.166008,-0.009933,-0.467684
380,-0.87999,-0.013165,-0.62527,0.040174,-0.028477,-0.975263,-0.417838,-0.198731,-0.090089
381,-0.88229,-0.010771,-0.6462,0.036963,-0.03169,-0.981688,-0.354806,-0.135848,-0.152972
382,-0.88229,-0.017953,-0.643584,0.046599,-0.03169,-0.978475,-0.921348,-0.45056,-0.593599
383,-0.88229,-0.005984,-0.635735,0.040174,-0.022855,-0.95358,-0.606635,-0.45056,-0.719514
384,-0.88229,-0.005984,-0.635735,0.03375,-0.034099,-0.976066,-0.543603,0.115982,-0.845429
385,-0.891493,-0.010771,-0.635735,0.037765,-0.020446,-0.973657,-0.795433,-0.261763,-0.593599
386,-0.877689,-0.015559,-0.643584,0.03375,-0.012415,-0.984901,-0.73255,-0.198731,-0.467684
387,-0.884591,-0.008378,-0.643584,0.050614,-0.022855,-0.992932,-0.354806,-0.009933,-0.530716
388,-0.884591,-0.010771,-0.638351,0.036963,-0.025266,-1.002569,-0.543603,-0.324646,-0.278886
389,-0.868487,-0.020347,-0.635735,0.036159,-0.023659,-0.98249,-0.166008,-0.324646,-0.216004
390,-0.875389,0.001197,-0.630503,0.046599,-0.02125,-0.983294,-0.354806,-0.513443,-0.467684
391,-0.875389,0.001197,-0.630503,0.032948,-0.020446,-0.97205,-0.417838,-0.009933,-0.656482
392,-0.88229,-0.008378,-0.596492,0.038568,-0.022052,-0.968035,-0.417838,-0.45056,-0.656482
393,-0.884591,-0.010771,-0.601725,0.040979,-0.022052,-0.968035,-0.291923,0.05295,-0.278886
394,-0.877689,-0.008378,-0.627886,0.032143,-0.02687,-0.979279,-0.228891,-0.261763,0.035826
395,-0.87999,-0.020347,-0.622654,0.031341,-0.019644,-0.966428,0.085822,0.05295,-0.845429
396,-0.891493,-0.015559,-0.630503,0.032948,-0.03169,-0.993734,-0.103125,-0.135848,-0.530716
397,-0.891493,-0.015559,-0.630503,0.031341,-0.024461,-0.952775,-0.543603,-0.135848,-0.656482
398,-0.87999,-0.010771,-0.622654,0.041781,-0.025266,-0.971248,-0.228891,-0.009933,-0.467684
399,-0.88229,-0.013165,-0.620038,0.039372,-0.020446,-0.98249,-0.166008,-0.198731,-1.097109
400,-0.877689,-0.017953,-0.614806,0.041781,-0.026068,-0.967233,-0.354806,-0.261763,-0.656482
401,-0.891493,-0.00359,-0.622654,0.03375,-0.02687,-0.966428,-0.606635,-0.387677,-0.593599
402,-0.886892,-0.010771,-0.620038,0.030537,-0.01643,-0.977672,-0.166008,-0.324646,-0.530716
403,-0.886892,-0.010771,-0.620038,0.036963,-0.018839,-0.985703,-0.543603,-0.576475,-0.278886
404,-0.889192,-0.008378,-0.604341,0.024112,-0.010808,-0.964822,-0.606635,-0.009933,-0.593599
405,-0.886892,-0.00359,-0.622654,0.032143,-0.027674,-0.995341,-0.606635,0.241748,-0.782397
406,-0.886892,-0.013165,-0.635735,0.038568,-0.023659,-0.979279,-0.103125,-0.576475,-0.530716
407,-0.889192,-0.008378,-0.648816,0.035356,-0.030083,-0.980886,-0.228891,0.241748,-0.152972
408,-0.88229,-0.008378,-0.638351,0.032948,-0.017235,-0.990521,-0.606635,-0.261763,-0.404801
409,-0.889192,-0.022741,-0.635735,0.032143,-0.022052,-0.980886,-0.606635,-0.072965,-0.278886
410,-0.889192,-0.022741,-0.635735,0.03375,-0.02687,-0.97205,-0.228891,0.05295,-0.530716
411,-0.884591,-0.015559,-0.656665,0.040174,-0.030083,-0.992128,-0.669518,-0.387677,-0.530716
412,-0.896094,-0.005984,-0.617422,0.04419,-0.033297,-0.986506,-0.858316,-0.135848,-0.467684
413,-0.886892,-0.013165,-0.643584,0.040174,-0.022855,-0.97687,-0.543603,-0.009933,-0.593599
414,-0.87999,-0.010771,-0.620038,0.040979,-0.023659,-0.968035,-0.228891,-0.198731,-0.656482
415,-0.884591,-0.008378,-0.669746,0.032143,-0.024461,-0.97687,0.02279,0.241748,-0.719514
416,-0.884591,-0.008378,-0.669746,0.039372,-0.023659,-0.988112,-0.354806,-0.198731,-0.530716
417,-0.884591,-0.00359,-0.638351,0.039372,-0.015628,-0.971248,-0.291923,0.05295,-0.090089
418,-0.875389,-0.00359,-0.6462,0.04419,-0.024461,-0.967233,-0.417838,-0.072965,-0.278886
419,-0.884591,-0.005984,-0.627886,0.040174,-0.023659,-0.974459,-0.417838,-0.198731,-0.467684
420,-0.88229,-0.017953,-0.604341,0.038568,-0.028477,-0.963217,-0.480721,0.05295,-0.719514
421,-0.884591,-0.005984,-0.630503,0.039372,-0.022855,-0.970444,-0.417838,0.05295,-0.656482
422,-0.884591,-0.005984,-0.630503,0.040174,-0.024461,-0.999356,-0.669518,0.115982,-0.027057
423,-0.889192,-0.010771,-0.635735,0.043387,-0.014824,-0.968837,-0.858316,-0.135848,-0.593599
424,-0.88229,-0.001197,-0.648816,0.040174,-0.034901,-0.95358,-0.73255,-0.009933,-1.285907
425,-0.884591,0.008378,-0.6462,0.040979,-0.03169,-0.967233,-0.73255,-0.072965,-0.845429
426,-0.886892,0.003591,-0.638351,0.041781,-0.028477,-0.986506,-0.543603,0.241748,-0.404801
427,-0.877689,0.001197,-0.651432,0.030537,-0.012415,-0.97687,-0.103125,-0.198731,-0.152972
428,-0.88229,-0.001197,-0.617422,0.046599,-0.026068,-0.964019,-0.795433,-0.45056,-0.656482
429,-0.88229,-0.001197,-0.617422,0.042583,-0.023659,-0.984097,-0.480721,0.178865,-0.782397
430,-0.884591,-0.010771,-0.633119,0.036159,-0.037312,-0.964019,-0.417838,-0.387677,-1.348939
431,-0.891493,-0.00359,-0.630503,0.042583,-0.028477,-0.968837,-0.795433,-0.45056,-0.027057
432,-0.886892,0.005985,-0.614806,0.050614,-0.03169,-0.981688,-0.606635,-0.261763,-0.593599
433,-0.889192,-0.00359,-0.62527,0.041781,-0.014824,-0.999356,-0.669518,-0.261763,-0.530716
434,-0.896094,-0.005984,-0.612189,0.036963,-0.033297,-0.984901,-0.228891,-0.009933,-0.593599
435,-0.896094,-0.005984,-0.612189,0.035356,-0.018839,-0.970444,-0.354806,-0.324646,-0.845429
436,-0.884591,-0.00359,-0.643584,0.044994,-0.018037,-0.978475,-0.73255,-0.45056,-0.216004
437,-0.884591,-0.013165,-0.661897,0.036963,-0.018037,-0.973657,-0.354806,-0.198731,-0.782397
438,-0.886892,-0.010771,-0.651432,0.037765,-0.026068,-0.968035,-0.543603,-0.135848,-0.341769
439,-0.889192,-0.015559,-0.633119,0.040174,-0.029281,-0.981688,-0.354806,-0.198731,-0.152972
440,-0.896094,-0.008378,-0.599108,0.045796,-0.030083,-0.965626,-0.73255,-0.072965,-0.467684
441,-0.886892,-0.008378,-0.627886,0.03375,-0.030886,-0.968035,-0.543603,-0.198731,-0.530716
442,-0.886892,-0.008378,-0.627886,0.030537,-0.030083,-0.960806,-0.543603,0.05295,-0.152972
443,-0.893794,-0.013165,-0.638351,0.040174,-0.022855,-0.972855,-0.040093,-0.324646,-0.530716
444,-0.884591,0.001197,-0.633119,0.042583,-0.02125,-0.975263,-0.73255,-0.198731,-0.216004
445,-0.898395,-0.013165,-0.614806,0.038568,-0.032492,-0.976066,-0.103125,-0.009933,-0.467684
446,-0.898395,-0.008378,-0.654048,0.041781,-0.025266,-0.967233,-0.543603,0.115982,-0.782397
447,-0.893794,-0.013165,-0.6462,0.02893,-0.018037,-0.965626,-0.417838,-0.387677,-0.971194
448,-0.893794,-0.013165,-0.6462,0.034552,-0.022052,-0.970444,-0.228891,-0.324646,-0.656482
449,-0.898395,-0.005984,-0.651432,0.032948,-0.036508,-0.968837,-0.543603,0.05295,-1.097109
450,-0.886892,-0.005984,-0.630503,0.039372,-0.026068,-0.99775,-0.291923,-0.072965,-0.782397
451,-0.896094,-0.010771,-0.633119,0.042583,-0.022052,-0.968035,-0.921348,-0.135848,-0.216004
452,-0.886892,-0.013165,-0.617422,0.040979,-0.033297,-0.968837,-0.858316,-0.261763,-0.719514
453,-0.884591,-0.015559,-0.643584,0.030537,-0.027674,-0.992128,-0.291923,-0.072965,-0.278886
454,-0.884591,-0.015559,-0.643584,0.036963,-0.022052,-0.988112,-0.354806,0.05295,-0.278886
455,-0.891493,-0.005984,-0.635735,0.03375,-0.023659,-0.966428,-0.103125,-0.135848,-0.719514
456,-0.88229,-0.022741,-0.62527,0.04419,-0.030083,-0.978475,-0.228891,0.05295,-0.719514
457,-0.884591,-0.015559,-0.630503,0.046599,-0.027674,-0.965626,-0.354806,-0.009933,-0.656482
458,-0.898395,-0.015559,-0.643584,0.032143,-0.025266,-0.977672,-0.291923,-0.891188,-0.404801
459,-0.870787,-0.022741,-0.638351,0.038568,-0.030886,-0.973657,-0.543603,-0.387677,-0.467684
460,-0.88229,-0.010771,-0.622654,0.048205,-0.026068,-0.95358,0.085822,-0.261763,-0.845429
461,-0.88229,-0.010771,-0.622654,0.040979,-0.018839,-0.988917,-0.606635,-0.324646,-0.719514
462,-0.877689,-0.00359,-0.612189,0.027326,-0.027674,-0.957595,-0.669518,0.115982,-0.719514
463,-0.884591,-0.005984,-0.651432,0.036159,-0.025266,-0.973657,0.085822,0.304779,-0.656482
464,-0.886892,-0.013165,-0.638351,0.039372,-0.026068,-0.969641,-0.73255,-0.009933,-0.530716
465,-0.877689,-0.001197,-0.633119,0.043387,-0.018839,-0.973657,-0.291923,-0.198731,-0.782397
466,-0.886892,-0.005984,-0.638351,0.037765,-0.01643,-0.968035,-0.417838,-0.261763,-1.160141
467,-0.886892,-0.005984,-0.638351,0.039372,-0.028477,-0.97687,-0.669518,-0.387677,-0.530716
468,-0.884591,-0.013165,-0.640967,0.040174,-0.027674,-0.97687,0.085822,-0.135848,-0.782397
469,-0.898395,-0.00359,-0.633119,0.039372,-0.027674,-0.978475,-0.228891,0.178865,-0.782397
470,-0.88229,-0.013165,-0.62527,0.042583,-0.022052,-0.967233,-0.417838,-0.135848,-0.278886
471,-0.88229,-0.008378,-0.638351,0.040979,-0.018037,-0.984901,-0.228891,0.115982,-0.719514
472,-0.88229,-0.005984,-0.620038,0.041781,-0.027674,-0.95358,-0.166008,0.241748,-0.404801
473,-0.886892,-0.00359,-0.635735,0.03375,-0.017235,-0.984097,-0.669518,-0.009933,-0.782397
474,-0.886892,-0.00359,-0.635735,0.047403,-0.030886,-0.968035,-0.480721,0.05295,-0.467684
475,-0.896094,-0.005984,-0.633119,0.042583,-0.03169,-0.981688,-0.606635,-0.135848,-0.467684
476,-0.886892,-0.008378,-0.617422,0.036963,-0.02125,-0.972855,-0.417838,-0.198731,-1.285907
477,-0.884591,-0.00359,-0.617422,0.036963,-0.027674,-0.978475,-0.354806,0.178865,-0.341769
478,-0.886892,-0.010771,-0.622654,0.032143,-0.014824,-0.970444,-0.480721,0.115982,-0.530716
479,-0.889192,-0.008378,-0.604341,0.032948,-0.024461,-0.974459,-0.543603,-0.009933,-0.782397
480,-0.889192,-0.008378,-0.604341,0.048205,-0.02687,-0.963217,-0.480721,-0.135848,-0.341769
481,-0.896094,-0.015559,-0.627886,0.048205,-0.029281,-0.995341,-0.543603,-0.009933,-0.530716
482,-0.88229,-0.010771,-0.622654,0.031341,-0.020446,-0.974459,-0.606635,-0.009933,-0.845429
483,-0.891493,-0.017953,-0.622654,0.038568,-0.024461,-0.972855,-0.858316,-0.261763,-0.530716
484,-0.893794,-0.017953,-0.664513,0.02893,-0.024461,-0.981688,-0.480721,-0.513443,-0.216004
485,-0.875389,-0.00359,-0.627886,0.039372,-0.033297,-0.995341,-0.543603,-0.45056,-0.656482
486,-0.875389,-0.00359,-0.627886,0.037765,-0.038917,-0.961611,-0.669518,-0.261763,-0.845429
487,-0.889192,-0.017953,-0.656665,0.034552,-0.026068,-0.984901,-0.291923,-0.324646,-0.530716
488,-0.891493,-0.010771,-0.630503,0.036159,-0.02125,-0.981688,-0.480721,-0.135848,-0.782397
489,-0.875389,-0.017953,-0.630503,-0.0048,-0.030886,-1.004174,0.77813,1.186034,-0.341769
490,-0.884591,-0.022741,-0.656665,0.026521,-0.027674,-0.97205,-2.620825,1.3118,-0.027057
491,-0.88229,-0.00359,-0.633119,0.043387,-0.014021,-0.993734,0.400534,-1.520613,-0.467684
492,-0.891493,-0.017953,-0.62527,0.038568,-0.029281,-0.98731,0.715247,-1.017102,-0.404801
493,-0.891493,-0.017953,-0.62527,0.038568,-0.024461,-0.98249,-1.361975,0.997087,-0.027057
494,-0.891493,-0.005984,-0.62527,0.02893,-0.020446,-1.000963,-0.606635,-0.261763,-0.593599
495,-0.886892,-0.017953,-0.651432,0.039372,-0.02687,-0.986506,0.400534,-0.639358,-0.090089
496,-0.889192,-0.010771,-0.635735,0.040979,-0.026068,-0.991325,-0.795433,0.178865,-0.467684
497,-0.88229,-0.015559,-0.667129,0.040174,-0.02687,-0.980081,-1.047263,0.178865,-1.160141
498,-0.893794,-0.025134,-0.630503,0.039372,-0.03169,-0.97205,-0.228891,-0.261763,-0.152972
499,-0.893794,-0.025134,-0.630503,0.03375,-0.014824,-0.984901,-0.480721,-0.324646,-0.404801
500,-0.889192,-0.020347,-0.633119,0.040174,-0.017235,-0.992128,-0.984231,0.05295,-0.593599
501,-0.896094,-0.010771,-0.617422,0.041781,-0.017235,-0.986506,-1.110146,-0.198731,-0.341769
502,-0.893794,-0.017953,-0.654048,0.030537,-0.023659,-0.978475,-0.103125,-0.828156,-0.656482
503,-0.88229,-0.008378,-0.630503,0.042583,-0.019644,-0.963217,-0.480721,-0.261763,-0.404801
504,-0.893794,-0.022741,-0.643584,0.043387,-0.04213,-0.97687,-0.669518,-0.261763,-0.593599
505,-0.893794,-0.022741,-0.643584,0.031341,-0.030083,-0.964822,-0.228891,-0.513443,-0.845429
506,-0.891493,-0.017953,-0.664513,0.031341,-0.028477,-0.963217,-0.480721,-0.324646,-0.341769
507,-0.893794,-0.022741,-0.651432,0.03375,-0.020446,-0.979279,-0.795433,-0.198731,-0.027057
508,-0.886892,-0.013165,-0.640967,0.038568,-0.025266,-1.000963,-0.228891,-0.198731,-0.530716
509,-0.88229,-0.010771,-0.62527,0.036159,-0.022855,-0.988917,-0.417838,-0.072965,0.035826
510,-0.886892,-0.005984,-0.614806,0.038568,-0.023659,-0.996143,-0.606635,0.178865,-0.467684
511,-0.87999,-0.017953,-0.633119,0.032948,-0.023659,-0.989719,-0.417838,-0.009933,-0.656482
512,-0.87999,-0.017953,-0.633119,0.041781,-0.022052,-0.979279,-0.543603,-0.072965,-0.152972
513,-0.900696,-0.020347,-0.622654,0.039372,-0.040523,-0.98249,0.274619,-0.198731,-0.908311
514,-0.893794,-0.015559,-0.638351,0.036963,-0.017235,-0.986506,-0.354806,-0.009933,-0.404801
515,-0.896094,-0.010771,-0.635735,0.038568,-0.032492,-0.972855,-0.606635,-0.324646,-0.530716
516,-0.893794,-0.017953,-0.612189,0.041781,-0.03169,-0.984901,-0.543603,-0.009933,-0.404801
517,-0.893794,-0.015559,-0.62527,0.040174,-0.014824,-0.978475,-0.543603,-0.324646,-0.593599
518,-0.893794,-0.015559,-0.62527,0.044994,-0.02125,-0.999356,-0.166008,-0.261763,-0.719514
519,-0.891493,-0.010771,-0.617422,0.040174,-0.01643,-0.97687,-0.354806,-0.387677,-0.152972
520,-0.896094,-0.013165,-0.604341,0.037765,-0.014021,-0.984901,-0.480721,-0.387677,-0.908311
521,-0.893794,-0.015559,-0.609573,0.030537,-0.028477,-0.97205,-0.354806,-0.324646,-0.530716
522,-0.891493,-0.013165,-0.6462,0.030537,-0.020446,-0.988112,-0.480721,-0.009933,-0.782397
523,-0.88229,-0.010771,-0.635735,0.035356,-0.013217,-0.964822,-0.921348,-0.009933,-0.593599
524,-0.893794,-0.010771,-0.643584,0.040174,-0.027674,-0.97205,-0.417838,-0.198731,-0.656482
525,-0.893794,-0.010771,-0.643584,0.034552,-0.027674,-0.964822,-0.354806,-0.387677,-0.152972
526,-0.889192,-0.017953,-0.62527,0.040979,-0.027674,-0.984901,-0.417838,-0.072965,-0.341769
527,-0.889192,-0.005984,-0.635735,0.045796,-0.028477,-0.971248,-0.73255,-0.513443,-0.656482
528,-0.889192,-0.017953,-0.630503,0.049812,-0.036508,-1.006585,-0.795433,-0.072965,-0.278886
529,-0.891493,-0.010771,-0.651432,0.041781,-0.02687,-0.980886,-0.166008,-0.387677,-0.216004
530,-0.88229,-0.008378,-0.630503,0.039372,-0.02687,-0.986506,-0.543603,-0.70239,-0.341769
531,-0.88229,-0.008378,-0.630503,0.03375,-0.022052,-0.964822,-0.417838,-0.513443,-0.719514
532,-0.87999,-0.008378,-0.6462,0.037765,-0.026068,-0.976066,-0.103125,-0.261763,-0.656482
533,-0.884591,-0.013165,-0.617422,0.034552,-0.023659,-0.968837,-0.166008,-0.261763,-0.341769
534,-0.884591,-0.008378,-0.627886,0.03375,-0.035705,-0.971248,0.085822,-0.324646,-0.656482
535,-0.88229,-0.005984,-0.654048,0.05463,-0.026068,-0.975263,0.400534,-0.009933,-0.467684
536,-0.877689,-0.015559,-0.643584,0.029734,-0.050161,-0.980081,0.400534,0.115982,-0.216004
537,-0.877689,-0.015559,-0.643584,0.027326,-0.059798,-0.979279,4.051169,-0.954071,-1.034226
538,-0.886892,-0.017953,-0.640967,-0.044955,-0.041327,-1.06521,-4.697898,1.186034,-0.341769
539,-0.884591,-0.027528,-0.6462,0.047403,-0.033297,-0.925471,0.400534,-1.96124,-0.845429
540,-0.87999,-0.025134,-0.635735,0.031341,-0.022855,-0.98249,1.848182,0.493577,-0.404801
541,-0.889192,-0.025134,-0.635735,0.036963,-0.020446,-0.992932,-1.361975,-1.394698,-0.593599
542,-0.88229,-0.025134,-0.643584,0.048205,-0.02125,-0.950366,-2.620825,2.004257,-1.097109
543,-0.877689,-0.029922,-0.640967,0.046599,-0.026068,-0.98731,1.596353,-1.079985,-1.600768
544,-0.877689,-0.029922,-0.640967,0.049009,0.032559,-0.989719,0.77813,-0.639358,-4.433181
545,-0.88229,-0.025134,-0.614806,0.056236,-0.026068,-1.000159,-2.683708,4.773787,-3.237214
546,-0.891493,-0.022741,-0.633119,0.064267,-0.017235,-0.989719,1.848182,-2.024123,-8.461561
547,-0.893794,-0.027528,-0.640967,-0.031302,-0.038917,-0.957595,0.463417,-0.828156,-10.286953
548,-0.891493,-0.013165,-0.627886,0.050614,-0.028477,-0.955988,-0.984231,1.123002,-10.601665
549,-0.884591,-0.017953,-0.633119,0.041781,-0.043736,-0.98249,-2.872506,2.004257,-14.944759
550,-0.884591,-0.017953,-0.633119,0.045796,-0.02687,-0.964822,1.659384,-2.024123,-18.973139
551,-0.889192,-0.005984,-0.635735,0.041781,-0.024461,-0.949564,1.722267,-0.639358,-26.33744
552,-0.884591,-0.022741,-0.6462,0.037765,-0.030886,-0.980886,-1.047263,1.374832,-27.218697
553,-0.886892,-0.015559,-0.638351,0.042583,-0.05498,-0.976066,1.344672,-0.576475,-26.841101
554,-0.891493,-0.013165,-0.640967,0.043387,-0.038114,-0.944744,1.28164,-0.576475,-29.421686
555,-0.877689,-0.029922,-0.633119,0.039372,-0.026068,-1.005781,0.337502,-0.009933,-35.967762
556,-0.87999,-0.025134,-0.635735,0.055434,-0.033297,-0.966428,2.351692,-0.954071,-42.89159
557,-0.87999,-0.025134,-0.635735,0.058647,-0.061405,-0.970444,2.792319,-0.765273,-51.326092
558,-0.875389,-0.029922,-0.659281,0.038568,-0.005991,-0.985703,3.484776,-1.394698,-64.670082
559,-0.875389,-0.020347,-0.6462,0.04419,-0.035705,-0.969641,-0.354806,0.367662,-60.515793
560,-0.873088,-0.017953,-0.659281,0.031341,-0.000369,-0.993734,0.966927,-1.583496,-53.654995
561,-0.875389,-0.025134,-0.672362,0.016081,-0.038114,-0.970444,0.904044,-2.150038,-54.913845
562,-0.87999,-0.034709,-0.654048,0.061858,-0.015628,-0.98249,-0.543603,-1.520613,-54.78793
563,-0.87999,-0.034709,-0.654048,0.042583,-0.053374,-0.991325,1.407555,-0.891188,-53.403164
564,-0.866186,-0.037103,-0.669746,0.010459,0.013284,-0.97205,2.981117,-0.387677,-52.710857
565,-0.870787,-0.034709,-0.661897,0.038568,-0.030886,-0.968837,1.911214,-0.576475,-51.451859
566,-0.866186,-0.032316,-0.664513,0.055434,-0.03169,-0.986506,1.092842,-0.135848,-49.437668
567,-0.859284,-0.039497,-0.635735,0.029734,-0.009202,-0.974459,1.533469,-1.70941,-47.864105
568,-0.863885,-0.039497,-0.630503,0.034552,-0.009202,-0.963217,1.029959,-1.2059,-42.262165
569,-0.863885,-0.039497,-0.630503,0.017688,0.00204,-0.946351,0.400534,-0.639358,-42.89159
570,-0.859284,-0.04189,-0.659281,0.050614,-0.040523,-0.98731,0.715247,-1.646528,-46.038715
571,-0.868487,-0.039497,-0.677594,0.053025,-0.053374,-0.976066,1.974097,-1.394698,-50.822433
572,-0.866186,-0.04189,-0.664513,0.053827,-0.033297,-0.964822,0.337502,-0.765273,-52.459026
573,-0.861585,-0.044284,-0.656665,0.030537,-0.01643,-0.968035,0.841162,-0.576475,-45.849915
574,-0.859284,-0.051466,-0.640967,0.037765,0.005254,-0.996947,2.351692,-2.024123,-47.675308
575,-0.852382,-0.056253,-0.674978,0.028128,-0.000369,-0.992932,1.092842,-0.891188,-46.668289
576,-0.852382,-0.056253,-0.674978,0.038568,-0.001171,-0.980886,1.218757,-0.198731,-45.40929
577,-0.854683,-0.061041,-0.672362,0.031341,-0.026068,-0.98249,1.596353,-0.009933,-42.388077
578,-0.852382,-0.051466,-0.672362,0.03375,-0.014824,-1.008994,1.533469,-0.639358,-36.093678
579,-0.861585,-0.058647,-0.672362,0.019295,-0.018839,-0.967233,1.092842,-0.135848,-34.834827
580,-0.850082,-0.070616,-0.674978,0.032948,0.011678,-0.974459,0.526449,-0.576475,-38.359699
581,-0.850082,-0.063434,-0.664513,0.025719,-0.019644,-0.970444,0.715247,-0.261763,-36.471424
582,-0.850082,-0.063434,-0.664513,0.030537,-0.018839,-0.964822,0.526449,-0.135848,-36.59734
583,-0.850082,-0.070616,-0.638351,0.031341,-0.040523,-0.968035,0.77813,-0.198731,-35.590168
584,-0.859284,-0.068222,-0.656665,0.024915,-0.013217,-0.976066,0.966927,-0.70239,-39.618549
585,-0.84318,-0.063434,-0.654048,0.037765,-0.034901,-0.981688,0.463417,-1.331815,-39.807346
586,-0.854683,-0.068222,-0.654048,0.025719,-0.027674,-0.965626,0.77813,-1.394698,-42.95462
587,-0.850082,-0.065828,-0.654048,0.052221,-0.005186,-0.980081,0.463417,-1.646528,-45.535202
588,-0.859284,-0.063434,-0.672362,0.020899,-0.015628,-0.991325,1.092842,0.115982,-38.926239
589,-0.859284,-0.063434,-0.672362,0.03375,0.033362,-0.97687,2.162894,-2.024123,-32.757755
590,-0.847781,-0.070616,-0.664513,0.063465,-0.030083,-0.977672,0.400534,0.05295,-25.393303
591,-0.840879,-0.070616,-0.688059,0.039372,-0.029281,-0.981688,0.77813,-1.394698,-26.903984
592,-0.829376,-0.070616,-0.688059,0.045796,-0.028477,-0.976066,1.155874,-0.135848,-34.394199
593,-0.833977,-0.082585,-0.669746,0.063465,-0.01643,-0.978475,0.526449,-0.891188,-35.338337
594,-0.836278,-0.082585,-0.68021,0.027326,0.005254,-0.972855,0.400534,-0.828156,-30.491737
595,-0.836278,-0.082585,-0.68021,0.035356,-0.022855,-0.986506,0.589332,-0.576475,-28.540428
596,-0.838578,-0.075403,-0.677594,0.034552,-0.01643,-0.961611,0.463417,-0.513443,-32.505924
597,-0.833977,-0.07301,-0.667129,0.036963,-0.03169,-0.984901,0.211737,-0.576475,-31.121162
598,-0.833977,-0.070616,-0.656665,0.048205,-0.010808,-0.980886,0.966927,-1.2059,-28.729374
599,-0.831677,-0.082585,-0.672362,0.035356,-0.02125,-0.984901,0.274619,-0.891188,-27.029898
600,-0.840879,-0.084978,-0.674978,0.041781,-0.049358,-0.977672,0.274619,-0.198731,-27.470526
601,-0.840879,-0.084978,-0.674978,0.03375,-0.019644,-0.968837,0.589332,-1.268783,-26.463356
602,-0.833977,-0.089766,-0.659281,0.049812,-0.034099,-0.969641,0.463417,-0.009933,-27.092781
603,-0.827075,-0.089766,-0.664513,0.028128,-0.030886,-0.974459,0.966927,-0.891188,-24.952677
604,-0.829376,-0.087372,-0.659281,0.040174,0.005254,-0.97205,0.463417,-0.135848,-27.911003
605,-0.838578,-0.087372,-0.682826,0.056236,-0.038114,-0.977672,0.463417,-0.954071,-26.715185
606,-0.829376,-0.089766,-0.682826,0.036963,-0.008399,-0.993734,0.652215,-0.765273,-28.60346
607,-0.831677,-0.09216,-0.68021,0.048205,-0.030083,-0.964019,1.407555,0.241748,-31.058277
608,-0.831677,-0.09216,-0.68021,0.028128,-0.001975,-0.968837,0.715247,-0.954071,-37.793156
609,-0.829376,-0.101735,-0.667129,0.027326,-0.017235,-0.98731,-0.606635,0.556609,-42.388077
610,-0.815572,-0.099341,-0.669746,0.040174,-0.042934,-0.967233,1.848182,-1.268783,-41.003315
611,-0.820173,-0.101735,-0.667129,0.058647,-0.034099,-0.951973,1.911214,-0.261763,-42.89159
612,-0.831677,-0.094553,-0.651432,0.062662,-0.049358,-1.000963,1.407555,-1.96124,-44.654099
613,-0.824775,-0.094553,-0.674978,0.013673,0.014891,-0.970444,-0.103125,2.06714,-38.611526
614,-0.824775,-0.094553,-0.674978,0.02331,-0.009202,-0.978475,2.477607,-1.96124,-31.121162
615,-0.824775,-0.094553,-0.661897,0.055434,-0.040523,-0.968837,0.652215,0.367662,-28.666346
616,-0.817873,-0.094553,-0.648816,0.03375,-0.030083,-0.984901,-0.228891,-0.072965,-32.443043
617,-0.817873,-0.106522,-0.6462,0.056236,-0.058192,-0.991325,0.77813,-1.268783,-37.919071
618,-0.815572,-0.104128,-0.6462,0.032143,0.00204,-0.980081,1.029959,-0.954071,-37.163731
619,-0.813272,-0.099341,-0.651432,0.035356,-0.022052,-0.964019,0.715247,0.178865,-37.478443
620,-0.815572,-0.108916,-0.656665,0.039372,-0.017235,-0.947155,0.274619,-0.513443,-41.380909
621,-0.815572,-0.108916,-0.656665,0.043387,-0.025266,-0.961611,1.470587,-0.954071,-50.696667
622,-0.813272,-0.104128,-0.68021,0.047403,-0.020446,-0.985703,0.966927,-1.394698,-55.228558
623,-0.815572,-0.108916,-0.688059,0.053025,-0.017235,-0.971248,0.148705,-1.772442,-50.822433
624,-0.80637,-0.113704,-0.685443,0.031341,-0.036508,-0.947958,1.659384,-0.198731,-40.247974
625,-0.80637,-0.118491,-0.677594,0.046599,-0.022052,-0.989719,1.344672,-1.2059,-29.484715
626,-0.810971,-0.108916,-0.659281,0.032948,-0.032492,-0.968035,-0.795433,0.871322,-22.120264
627,-0.810971,-0.108916,-0.659281,0.005642,-0.022855,-0.977672,0.02279,-0.261763,-18.595394
628,-0.80867,-0.11131,-0.643584,0.048205,-0.029281,-0.979279,1.092842,-1.268783,-29.736397
629,-0.804069,-0.123279,-0.674978,0.029734,-0.026068,-0.957595,-0.103125,0.430694,-36.534306
630,-0.810971,-0.120885,-0.703756,0.039372,-0.004384,-0.977672,0.841162,-0.261763,-41.129227
631,-0.804069,-0.128066,-0.688059,0.044994,-0.044539,-0.970444,2.603522,-0.828156,-57.242748
632,-0.801769,-0.123279,-0.693291,0.038568,-0.024461,-0.981688,1.974097,-0.639358,-66.87307
633,-0.801769,-0.123279,-0.693291,0.05704,-0.018037,-0.988917,1.092842,-0.198731,-73.230347
634,-0.799468,-0.123279,-0.664513,0.027326,-0.041327,-0.978475,2.540639,-3.031292,-86.259628
635,-0.801769,-0.128066,-0.695907,0.053827,-0.072649,-1.000159,2.477607,-1.583496,-82.231247
636,-0.792566,-0.135247,-0.68021,0.061858,-0.048554,-0.962413,1.785299,-2.024123,-71.153275
637,-0.794867,-0.152004,-0.682826,0.01849,0.043802,-0.950366,1.28164,-1.520613,-60.012276
638,-0.797167,-0.152004,-0.667129,0.037765,-0.008399,-0.996947,1.155874,0.05295,-46.164627
639,-0.787965,-0.144823,-0.685443,0.015279,-0.022052,-0.959202,1.533469,-2.212921,-42.513992
640,-0.787965,-0.144823,-0.685443,0.059449,-0.038114,-0.971248,-0.354806,0.241748,-34.897861
641,-0.790265,-0.156791,-0.698524,0.036159,-0.045343,-0.993734,1.029959,-1.646528,-36.282475
642,-0.797167,-0.154398,-0.674978,0.032948,-0.02687,-0.970444,1.659384,-0.891188,-48.682476
643,-0.785664,-0.166366,-0.682826,0.034552,-0.017235,-0.974459,1.344672,0.556609,-59.256939
644,-0.794867,-0.159185,-0.688059,0.06748,-0.071042,-1.00819,1.28164,-2.275953,-62.655895
645,-0.77186,-0.175942,-0.669746,0.037765,-0.039721,-0.971248,1.848182,-1.079985,-66.243645
646,-0.77186,-0.175942,-0.669746,0.004837,-0.014824,-0.994537,1.974097,-1.835325,-65.047676
647,-0.781063,-0.178335,-0.682826,0.028128,-0.046145,-0.943942,1.407555,0.241748,-58.942226
648,-0.77186,-0.178335,-0.690675,0.01849,0.006056,-0.975263,1.218757,-0.261763,-53.151337
649,-0.781063,-0.183123,-0.682826,0.043387,-0.053374,-1.005781,1.974097,-2.590665,-42.325047
650,-0.776462,-0.173548,-0.70114,0.02893,-0.008399,-0.957595,-0.228891,1.56363,-31.058277
651,-0.77186,-0.175942,-0.685443,0.05704,-0.037312,-0.978475,2.100012,-0.261763,-30.051107
652,-0.77186,-0.175942,-0.685443,0.074709,-0.066223,-0.961611,1.28164,-0.954071,-38.233784
653,-0.764959,-0.180729,-0.690675,0.03375,-0.022052,-0.967233,-0.166008,0.997087,-47.990021
654,-0.77186,-0.171154,-0.682826,0.061056,-0.022855,-0.97205,2.603522,-0.954071,-54.28442
655,-0.76956,-0.180729,-0.677594,0.059449,-0.047752,-0.981688,1.470587,-1.2059,-54.28442
656,-0.767259,-0.173548,-0.674978,0.048205,0.00204,-0.993734,0.148705,-1.2059,-50.948349
657,-0.755756,-0.18791,-0.688059,0.020899,-0.023659,-0.960806,1.344672,-2.905378,-36.974934
658,-0.764959,-0.195092,-0.68021,0.034552,-0.003582,-0.95358,1.029959,-1.96124,-28.729374
659,-0.764959,-0.195092,-0.68021,0.013673,-0.012415,-0.971248,-0.166008,-0.70239,-21.616753
660,-0.760357,-0.192698,-0.688059,0.027326,-0.009202,-0.968035,0.400534,0.178865,-21.742668
661,-0.751155,-0.202273,-0.667129,0.040979,-0.030886,-0.965626,0.463417,0.430694,-19.854244
662,-0.748854,-0.190304,-0.682826,0.030537,-0.022052,-0.988112,0.337502,-1.2059,-16.329523
663,-0.755756,-0.18791,-0.690675,0.05704,-0.054176,-0.955988,0.337502,-0.198731,-21.23901
664,-0.758057,-0.192698,-0.651432,0.065071,-0.044539,-1.008994,0.337502,0.304779,-27.029898
665,-0.758057,-0.192698,-0.651432,0.038568,-0.019644,-0.975263,-0.166008,-3.22009,-27.785238
666,-0.755756,-0.185517,-0.682826,0.057843,-0.04213,-0.964019,-0.795433,0.682375,-28.666346
667,-0.758057,-0.192698,-0.688059,0.027326,-0.007597,-1.002569,-1.110146,-0.828156,-27.848122
668,-0.760357,-0.192698,-0.693291,0.036159,-0.018839,-0.976066,0.526449,-1.583496,-18.973139
669,-0.755756,-0.199879,-0.695907,0.053025,-0.036508,-0.960004,0.463417,0.241748,-19.602564
670,-0.748854,-0.202273,-0.654048,0.032143,-0.018839,-0.995341,0.211737,-0.135848,-17.021832
671,-0.748854,-0.202273,-0.711605,0.024915,-0.025266,-0.955186,0.085822,-0.828156,-16.077694
672,-0.748854,-0.202273,-0.711605,0.052221,-0.020446,-0.977672,0.274619,0.430694,-19.161936
673,-0.751155,-0.204667,-0.664513,0.049812,-0.020446,-1.003372,0.841162,-1.2059,-18.973139
674,-0.755756,-0.199879,-0.674978,0.042583,-0.030886,-0.961611,0.589332,-0.261763,-23.379114
675,-0.762658,-0.202273,-0.68021,0.036159,-0.008399,-0.958397,-0.354806,-0.009933,-28.981056
676,-0.748854,-0.199879,-0.682826,0.012868,-0.003582,-0.979279,1.28164,-0.324646,-32.380013
677,-0.748854,-0.204667,-0.664513,0.074709,-0.038917,-0.964822,0.085822,2.633682,-31.121162
678,-0.748854,-0.204667,-0.664513,0.061056,-0.03169,-1.001765,0.77813,-1.898208,-28.792259
679,-0.753455,-0.207061,-0.672362,0.069889,-0.049358,-0.947958,1.155874,-1.142868,-30.302937
680,-0.746553,-0.202273,-0.656665,0.037765,-0.005991,-0.981688,0.400534,0.745407,-31.309959
681,-0.739652,-0.211848,-0.656665,0.06748,-0.032492,-0.990521,1.155874,-1.70941,-26.841101
682,-0.739652,-0.204667,-0.690675,0.057843,-0.020446,-0.950366,0.715247,0.80829,-29.421686
683,-0.73505,-0.214242,-0.651432,0.066678,-0.023659,-1.011403,1.029959,-0.954071,-33.38718
684,-0.73505,-0.214242,-0.651432,0.042583,-0.02687,-0.983294,1.218757,-1.96124,-34.708912
685,-0.73275,-0.204667,-0.643584,0.037765,-0.010006,-0.991325,-0.166008,-0.45056,-37.919071
686,-0.730449,-0.202273,-0.68021,0.025719,-0.001975,-0.966428,1.029959,-1.583496,-39.052006
687,-0.739652,-0.216636,-0.640967,0.049812,-0.030886,-0.993734,0.904044,-0.45056,-41.066196
688,-0.728148,-0.219029,-0.651432,0.019295,0.010071,-0.98249,1.911214,-2.024123,-39.177921
689,-0.723547,-0.214242,-0.651432,0.047403,-0.008399,-0.973657,-0.228891,0.241748,-39.240952
690,-0.730449,-0.216636,-0.651432,0.029734,-0.02687,-0.996947,0.463417,-0.828156,-34.960743
691,-0.730449,-0.216636,-0.651432,0.027326,-0.015628,-0.984097,0.274619,-1.394698,-33.261265
692,-0.723547,-0.214242,-0.656665,0.040979,-0.025266,-0.984097,0.463417,-1.394698,-27.659323
693,-0.718946,-0.221423,-0.648816,0.02893,-0.040523,-0.965626,0.904044,-0.072965,-26.274559
694,-0.723547,-0.228604,-0.669746,0.020097,-0.018839,-0.965626,0.589332,0.304779,-31.687704
695,-0.718946,-0.226211,-0.648816,0.057843,-0.028477,-0.973657,-0.040093,0.871322,-34.457233
696,-0.721246,-0.221423,-0.640967,0.042583,-0.018839,-1.013009,1.470587,-1.96124,-41.947453
697,-0.721246,-0.221423,-0.640967,0.032143,-0.026068,-0.952775,1.785299,-1.079985,-49.75238
698,-0.716645,-0.233392,-0.659281,-0.003194,-0.002777,-0.951973,1.407555,-0.70239,-52.144314
699,-0.707443,-0.240573,-0.656665,0.008051,-0.034099,-0.949564,1.029959,-0.891188,-52.899654
700,-0.714345,-0.235786,-0.659281,0.021704,-0.047752,-0.959202,0.589332,0.997087,-55.354473
701,-0.709743,-0.240573,-0.648816,0.027326,0.00204,-0.974459,2.03698,-1.772442,-52.333115
702,-0.69824,-0.233392,-0.643584,0.020899,-0.014824,-1.000963,1.533469,-1.331815,-46.227661
703,-0.69824,-0.233392,-0.643584,0.02331,-0.030083,-0.985703,2.225926,-1.583496,-52.144314
704,-0.69594,-0.235786,-0.669746,0.020097,-0.006793,-0.986506,1.974097,-1.394698,-56.739239
705,-0.689038,-0.247754,-0.6462,0.047403,-0.03169,-0.93832,0.841162,2.444884,-54.032589
706,-0.684437,-0.233392,-0.638351,0.025719,-0.029281,-0.993734,1.28164,-2.653548,-50.193008
707,-0.677535,-0.242967,-0.617422,0.06748,-0.029281,-0.978475,1.344672,-1.142868,-47.171799
708,-0.675234,-0.245361,-0.656665,0.031341,-0.001975,-1.011403,1.974097,-1.583496,-47.927139
709,-0.677535,-0.247754,-0.661897,0.049812,0.010071,-0.98731,1.722267,-2.275953,-48.934158
710,-0.677535,-0.247754,-0.661897,0.044994,-0.035705,-0.955186,1.155874,-0.828156,-51.326092
711,-0.675234,-0.245361,-0.612189,0.032143,-0.025266,-0.994537,1.911214,-3.786632,-55.54327
712,-0.670633,-0.247754,-0.640967,0.026521,-0.024461,-0.925471,0.148705,-1.772442,-57.998089
713,-0.663731,-0.259723,-0.638351,0.024112,0.014891,-0.970444,1.785299,-0.072965,-64.544167
714,-0.654528,-0.25733,-0.62527,0.02331,-0.009202,-0.963217,1.848182,-0.324646,-61.963436
715,-0.656829,-0.264511,-0.638351,0.011264,-0.013217,-1.000963,0.966927,-0.324646,-53.969707
716,-0.656829,-0.264511,-0.638351,0.016884,-0.014021,-0.939122,1.722267,-2.212921,-51.326092
717,-0.652228,-0.269298,-0.659281,0.065874,-0.007597,-0.999356,0.652215,2.004257,-53.717876
718,-0.649927,-0.266905,-0.640967,0.040979,0.001238,-0.999356,1.722267,-3.534803,-50.696667
719,-0.645326,-0.269298,-0.643584,0.047403,-0.006793,-0.960806,0.652215,0.619492,-39.429752
720,-0.638424,-0.25733,-0.609573,0.042583,-0.029281,-1.000963,1.407555,-0.70239,-41.947453
721,-0.631522,-0.266905,-0.604341,0.053025,-0.030886,-0.994537,0.966927,-2.71658,-48.052902
722,-0.633823,-0.264511,-0.604341,0.036159,-0.005991,-0.952775,1.28164,-0.387677,-51.640804
723,-0.633823,-0.264511,-0.604341,0.02331,-0.044539,-1.00819,1.470587,-1.835325,-58.942226
724,-0.629221,-0.266905,-0.622654,-0.000785,-0.017235,-0.951171,0.966927,-0.828156,-60.389877
725,-0.636123,-0.274086,-0.622654,-0.011224,0.012482,-0.971248,1.533469,-0.828156,-50.948349
726,-0.617718,-0.27648,-0.622654,0.011264,0.009269,-0.943942,0.274619,-0.324646,-39.366718
727,-0.610816,-0.278873,-0.630503,-0.0305,0.018907,-0.959202,0.589332,1.374832,-31.498907
728,-0.615418,-0.262117,-0.62527,0.057843,-0.002777,-0.955988,-1.047263,2.004257,-23.064402
729,-0.615418,-0.262117,-0.62527,0.006444,-0.025266,-1.017827,0.652215,-1.96124,-17.840054
730,-0.603914,-0.281267,-0.622654,0.032143,-0.008399,-0.921456,-0.73255,0.367662,-18.532511
731,-0.599313,-0.274086,-0.620038,0.069889,-0.012415,-1.03148,-0.921348,2.193055,-17.021832
732,-0.592411,-0.27648,-0.622654,0.062662,-0.033297,-1.048346,0.841162,-3.849515,-21.868435
733,-0.58781,-0.27648,-0.606957,0.029734,-0.034099,-0.94876,1.092842,-1.142868,-30.680534
734,-0.594712,-0.278873,-0.617422,0.061858,-0.059798,-0.980081,0.337502,-0.324646,-33.89069
735,-0.594712,-0.278873,-0.617422,0.037765,-0.027674,-0.985703,1.533469,-3.597686,-51.011379
736,-0.590111,-0.27648,-0.620038,0.085149,0.030953,-0.97687,0.148705,2.696565,-48.871277
737,-0.597013,-0.293236,-0.580795,-0.005602,-0.038114,-1.02104,2.477607,-1.96124,-43.898758
738,-0.580908,-0.293236,-0.59126,0.024112,0.014087,-0.939927,0.652215,-1.70941,-48.808243
739,-0.578608,-0.290842,-0.599108,-0.045757,0.026937,-0.972855,1.344672,-0.954071,-38.485615
740,-0.569405,-0.283661,-0.578179,0.114061,0.010071,-0.970444,-0.228891,-0.639358,-19.665447
741,-0.567104,-0.290842,-0.572946,-0.012027,0.018102,-1.015418,1.596353,-2.842346,-27.155813
742,-0.567104,-0.290842,-0.572946,-0.051379,-0.048554,-0.92306,-0.669518,1.123002,-29.736397
743,-0.569405,-0.286055,-0.588643,0.045796,0.019709,-0.973657,0.966927,0.619492,-34.079487
744,-0.574006,-0.286055,-0.599108,0.049812,-0.046145,-1.025056,0.463417,-1.017102,-15.700098
745,-0.567104,-0.290842,-0.567714,0.062662,-0.030083,-1.004174,0.77813,-3.660718,-18.280682
746,-0.557902,-0.283661,-0.586027,-0.020862,-0.003582,-0.961611,0.841162,-1.268783,-20.483669
747,-0.567104,-0.288449,-0.580795,-0.027286,-0.010006,-0.969641,1.155874,0.178865,-30.365822
748,-0.567104,-0.288449,-0.580795,0.089967,0.018102,-0.996947,0.085822,-2.338835,-36.723103
749,-0.564804,-0.290842,-0.59126,0.017688,-0.024461,-0.986506,1.659384,-0.891188,-36.660221
750,-0.555601,-0.288449,-0.586027,0.007248,-0.019644,-0.943138,1.029959,1.060119,-37.100849
751,-0.567104,-0.288449,-0.578179,0.036963,-0.010808,-0.967233,0.085822,0.871322,-39.933262
752,-0.551,-0.283661,-0.562482,0.038568,0.000434,-1.021843,1.407555,-1.2059,-40.37389
753,-0.541798,-0.293236,-0.596492,0.049812,0.012482,-0.950366,1.722267,-2.087155,-39.681431
754,-0.539497,-0.286055,-0.557249,0.007248,-0.018037,-0.960004,0.77813,2.004257,-41.318027
755,-0.539497,-0.286055,-0.557249,0.014475,-0.011613,-0.972855,0.337502,0.493577,-38.296665
756,-0.541798,-0.288449,-0.59126,0.036963,-0.014021,-0.964822,1.029959,-0.891188,-31.309959
757,-0.534896,-0.286055,-0.559866,0.042583,0.002845,-0.972855,0.652215,-0.072965,-26.33744
758,-0.532595,-0.286055,-0.583411,0.039372,-0.026068,-1.013009,0.715247,-1.142868,-23.190315
759,-0.523393,-0.283661,-0.549401,0.01849,-0.023659,-0.949564,0.400534,-0.70239,-19.350735
760,-0.530295,-0.29563,-0.559866,0.026521,-0.022052,-0.959202,-0.291923,0.05295,-16.329523
761,-0.530295,-0.29563,-0.559866,0.036963,-0.024461,-0.977672,0.841162,-0.135848,-18.091885
762,-0.516491,-0.293236,-0.554633,0.024112,-0.011613,-0.98731,0.337502,-1.079985,-14.567015
763,-0.530295,-0.290842,-0.562482,0.036159,-0.007597,-0.968837,0.148705,0.493577,-12.741622
764,-0.521092,-0.290842,-0.583411,0.022506,-0.018037,-0.973657,0.085822,-0.324646,-13.182249
765,-0.530295,-0.293236,-0.557249,0.02331,-0.010808,-0.988917,-0.543603,-1.2059,-11.168059
766,-0.534896,-0.290842,-0.559866,0.036159,-0.010808,-0.978475,-0.669518,0.05295,-10.979261
767,-0.534896,-0.290842,-0.559866,0.004035,-0.014824,-0.962413,-0.543603,-0.072965,-12.238111
768,-0.527994,-0.29563,-0.572946,0.063465,-0.030083,-0.971248,-0.291923,0.304779,-14.063503
769,-0.527994,-0.293236,-0.57033,0.028128,-0.019644,-1.002569,0.148705,0.05295,-14.881727
770,-0.523393,-0.288449,-0.586027,0.035356,0.039786,-0.985703,1.470587,-2.71658,-19.602564
771,-0.525693,-0.288449,-0.557249,0.008051,-0.005186,-0.967233,-0.543603,1.248917,-16.45529
772,-0.507288,-0.27648,-0.538936,0.049812,-0.020446,-0.988917,0.148705,0.241748,-16.958948
773,-0.51419,-0.293236,-0.559866,0.009657,-0.012415,-1.002569,0.337502,-1.457581,-17.840054
774,-0.51419,-0.293236,-0.559866,0.024915,-0.019644,-0.958397,0.02279,-0.45056,-15.322353
775,-0.509589,-0.288449,-0.567714,0.031341,-0.011613,-0.983294,0.211737,0.493577,-14.630047
776,-0.511889,-0.298024,-0.580795,0.024112,-0.013217,-0.984097,0.400534,-1.268783,-13.182249
777,-0.516491,-0.302811,-0.586027,0.035356,-0.03169,-0.952775,0.211737,-0.324646,-15.196441
778,-0.504988,-0.293236,-0.562482,0.005642,-0.060601,-0.946351,-0.103125,-0.513443,-14.881727
779,-0.51419,-0.293236,-0.559866,0.049009,0.00686,-0.98731,0.211737,-0.45056,-20.168957
780,-0.51419,-0.293236,-0.559866,0.016884,-0.015628,-1.000159,0.526449,-2.150038,-20.987328
781,-0.500386,-0.288449,-0.565098,0.027326,-0.002777,-0.935107,-0.040093,0.493577,-24.197336
782,-0.502687,-0.288449,-0.549401,0.006444,-0.011613,-0.996143,-0.166008,1.374832,-25.833931
783,-0.495785,-0.290842,-0.525855,0.010459,-0.039721,-1.00819,1.596353,-2.401867,-27.785238
784,-0.502687,-0.286055,-0.552017,0.053827,-0.013217,-0.943138,-0.354806,1.815459,-28.729374
785,-0.493484,-0.29563,-0.562482,0.040979,-0.014021,-1.015418,0.526449,-0.387677,-24.071571
786,-0.493484,-0.29563,-0.562482,0.047403,-0.050161,-0.988112,0.400534,-2.150038,-23.316231
787,-0.488883,-0.290842,-0.565098,-0.028893,-0.010808,-0.95358,-0.040093,-1.331815,-25.959846
788,-0.484282,-0.300417,-0.583411,0.047403,-0.020446,-0.939927,-0.291923,1.815459,-26.966866
789,-0.484282,-0.298024,-0.57033,0.062662,0.000434,-1.021843,0.211737,0.115982,-20.357903
790,-0.468177,-0.27648,-0.565098,0.008051,0.00204,-0.980081,1.470587,-1.646528,-19.728477
791,-0.488883,-0.29563,-0.544168,0.016884,-0.004384,-0.958397,0.337502,-0.639358,-19.287851
792,-0.475079,-0.288449,-0.578179,0.017688,-0.007597,-0.97687,-1.110146,2.255938,-19.413765
793,-0.475079,-0.288449,-0.578179,0.074709,-0.028477,-1.02104,0.526449,-0.639358,-13.685908
794,-0.472779,-0.300417,-0.567714,0.006444,-0.028477,-0.99775,1.155874,-4.353026,-15.259473
795,-0.463576,-0.300417,-0.559866,0.009657,-0.009202,-0.951973,0.274619,0.619492,-22.309061
796,-0.468177,-0.298024,-0.565098,0.049812,-0.010006,-0.986506,-0.73255,1.941225,-20.357903
797,-0.465877,-0.300417,-0.567714,-0.032104,-0.05257,-0.996143,1.785299,-1.583496,-24.134453
798,-0.470478,-0.29563,-0.565098,-0.018451,-0.000369,-0.925471,0.652215,-0.70239,-27.722206
799,-0.470478,-0.29563,-0.565098,0.008853,0.006056,-0.947958,-1.173028,2.193055,-24.826761
800,-0.468177,-0.286055,-0.538936,0.038568,-0.019644,-1.029873,0.211737,-0.324646,-17.714289
801,-0.470478,-0.300417,-0.554633,0.03375,-0.013217,-0.991325,1.533469,-3.660718,-16.140577
802,-0.463576,-0.29563,-0.552017,0.019295,-0.006793,-0.939122,-0.669518,0.80829,-14.818844
803,-0.463576,-0.300417,-0.552017,0.040174,-0.03169,-1.000159,-0.417838,1.3118,-18.847223
804,-0.452073,-0.298024,-0.549401,0.076314,-0.062207,-0.996143,1.911214,-2.212921,-27.470526
805,-0.452073,-0.29563,-0.546784,0.050614,-0.01643,-0.989719,1.28164,-2.779463,-32.317127
806,-0.452073,-0.29563,-0.546784,0.015279,0.002845,-0.920652,-0.166008,-1.017102,-33.764774
807,-0.452073,-0.288449,-0.552017,0.032143,-0.005991,-1.003372,1.596353,-0.70239,-36.786137
808,-0.435969,-0.293236,-0.546784,-0.0048,-0.05498,-0.936713,0.841162,-1.583496,-47.675308
809,-0.438269,-0.29563,-0.533703,0.05704,-0.037312,-0.92306,0.085822,1.815459,-46.47934
810,-0.431368,-0.298024,-0.554633,0.032143,0.018102,-1.033087,1.722267,-2.527633,-37.478443
811,-0.433668,-0.288449,-0.554633,0.009657,-0.017235,-0.985703,1.596353,-3.660718,-30.806448
812,-0.433668,-0.288449,-0.554633,0.057843,-0.033297,-0.949564,-0.228891,2.444884,-26.211527
813,-0.429067,-0.298024,-0.562482,0.041781,-0.019644,-1.025056,0.337502,-0.387677,-29.736397
814,-0.412963,-0.300417,-0.546784,0.026521,-0.022855,-0.991325,2.100012,-2.842346,-33.38718
815,-0.426766,-0.298024,-0.546784,0.015279,-0.000369,-0.955988,0.337502,1.248917,-33.827808
816,-0.424466,-0.290842,-0.549401,0.046599,-0.022052,-0.998554,0.148705,0.05295,-31.247074
817,-0.417564,-0.298024,-0.53632,0.045796,0.00204,-1.004978,2.225926,-4.101345,-28.477547
818,-0.417564,-0.298024,-0.53632,0.032143,-0.023659,-0.931091,0.274619,-0.639358,-29.044088
819,-0.408361,-0.286055,-0.538936,0.042583,-0.010006,-0.960806,-0.858316,0.178865,-30.86948
820,-0.401459,-0.288449,-0.538936,0.027326,-0.01643,-0.979279,0.904044,-2.150038,-32.63184
821,-0.401459,-0.293236,-0.531087,0.047403,-0.015628,-0.961611,1.218757,-0.828156,-31.750589
822,-0.399159,-0.290842,-0.533703,0.047403,-0.034901,-0.994537,-0.291923,-0.513443,-31.939386
823,-0.399159,-0.290842,-0.533703,0.04419,0.002845,-0.974459,0.526449,0.178865,-39.366718
824,-0.396858,-0.286055,-0.525855,0.037765,-0.044539,-0.980081,2.414724,-0.765273,-38.485615
825,-0.396858,-0.286055,-0.525855,0.024915,-0.010808,-0.960806,0.085822,-0.009933,-33.764774
826,-0.392257,-0.283661,-0.528471,0.024915,-0.038917,-0.955988,0.211737,1.437715,-29.044088
827,-0.389956,-0.290842,-0.53632,0.047403,-0.009202,-0.98249,1.155874,-2.150038,-35.401371
828,-0.376152,-0.278873,-0.572946,0.060252,-0.035705,-0.97205,0.085822,0.241748,-38.422581
829,-0.380754,-0.286055,-0.538936,0.038568,-0.061405,-0.977672,1.659384,-0.45056,-47.864105
830,-0.376152,-0.274086,-0.525855,0.024112,-0.013217,-0.966428,1.533469,-2.212921,-51.200176
831,-0.376152,-0.274086,-0.525855,0.064267,0.010876,-0.98249,1.596353,-1.835325,-49.563583
832,-0.373852,-0.274086,-0.523239,0.017688,-0.006793,-0.960806,1.092842,-1.142868,-51.011379
833,-0.362349,-0.283661,-0.518006,-0.013633,-0.001975,-0.962413,1.470587,-1.646528,-48.682476
834,-0.360048,-0.271692,-0.510158,0.017688,-0.014021,-0.980081,0.77813,0.241748,-51.70369
835,-0.348545,-0.274086,-0.525855,0.029734,-0.005991,-1.016221,0.904044,1.060119,-51.451859
836,-0.346244,-0.274086,-0.507541,0.002428,-0.007597,-0.965626,1.659384,-2.275953,-49.374786
837,-0.337042,-0.278873,-0.502309,0.063465,-0.01643,-0.964822,0.589332,1.626513,-45.724003
838,-0.337042,-0.278873,-0.502309,0.06748,-0.030886,-1.024253,1.911214,-1.772442,-50.633636
839,-0.339342,-0.264511,-0.518006,0.028128,-0.009202,-0.947958,1.155874,-2.338835,-55.228558
840,-0.334741,-0.264511,-0.510158,0.061056,-0.041327,-0.964019,0.841162,0.80829,-49.75238
841,-0.327839,-0.269298,-0.510158,0.024112,-0.004384,-1.005781,1.596353,-2.653548,-52.96254
842,-0.325539,-0.271692,-0.49446,0.020899,-0.013217,-0.974459,2.100012,-2.46475,-55.417355
843,-0.307134,-0.269298,-0.520622,0.024915,-0.002777,-0.942335,1.28164,0.367662,-51.892487
844,-0.307134,-0.269298,-0.520622,0.004837,-0.007597,-0.97205,0.77813,-0.513443,-50.381954
845,-0.311735,-0.269298,-0.510158,0.073905,-0.030083,-0.995341,0.589332,-1.520613,-50.004211
846,-0.300232,-0.259723,-0.504925,0.048205,-0.038114,-0.983294,1.155874,-1.520613,-50.696667
847,-0.300232,-0.266905,-0.507541,0.012066,-0.023659,-0.979279,1.218757,-0.513443,-54.599133
848,-0.291029,-0.25733,-0.483996,0.044994,-0.009202,-0.980886,1.092842,-0.135848,-52.836624
849,-0.295631,-0.264511,-0.499693,0.024915,0.006056,-0.973657,1.155874,-0.45056,-52.396145
850,-0.295631,-0.264511,-0.499693,0.005642,0.00204,-0.998554,1.533469,-0.135848,-49.878296
851,-0.286428,-0.252542,-0.481379,0.03375,-0.02687,-0.993734,1.848182,-1.835325,-48.745361
852,-0.281827,-0.250148,-0.49446,0.049009,-0.01643,-0.998554,1.659384,0.05295,-51.955517
853,-0.277225,-0.247754,-0.483996,0.026521,0.00686,-0.992128,2.540639,-2.024123,-54.725048
854,-0.277225,-0.245361,-0.481379,0.042583,-0.019644,-0.943942,1.596353,0.430694,-52.081284
855,-0.268023,-0.242967,-0.465683,-0.001587,0.007662,-0.980886,1.911214,0.178865,-58.879196
856,-0.274925,-0.238179,-0.470915,0.024915,-0.007597,-0.977672,1.785299,-0.324646,-58.753426
857,-0.274925,-0.238179,-0.470915,0.008853,-0.024461,-0.957595,1.218757,-0.135848,-57.494431
858,-0.249618,-0.230998,-0.470915,0.014475,0.036575,-1.013009,1.722267,-1.079985,-56.865002
859,-0.245017,-0.228604,-0.463066,0.036159,0.021315,-0.968837,1.470587,-1.898208,-55.102646
860,-0.249618,-0.230998,-0.46045,0.016884,-0.058192,-0.963217,1.596353,-1.457581,-54.662014
861,-0.245017,-0.230998,-0.470915,0.020899,-0.060601,-0.952775,1.911214,-0.765273,-50.759552
862,-0.226612,-0.223817,-0.486612,0.008051,-0.042934,-0.942335,1.218757,-0.891188,-55.857983
863,-0.226612,-0.223817,-0.486612,0.000822,-0.071042,-0.964019,1.155874,-0.576475,-56.928036
864,-0.215108,-0.219029,-0.478763,0.010459,0.001238,-0.99775,1.659384,-0.828156,-57.368664
865,-0.212808,-0.211848,-0.502309,0.016884,-0.022855,-0.976066,1.344672,-1.2059,-55.354473
866,-0.22201,-0.207061,-0.483996,0.001626,-0.030083,-0.97687,1.28164,0.05295,-55.165527
867,-0.21971,-0.207061,-0.481379,0.035356,-0.037312,-0.955988,1.407555,-0.135848,-54.473217
868,-0.203605,-0.207061,-0.486612,0.060252,-0.012415,-1.004174,1.722267,-1.835325,-51.766571
869,-0.203605,-0.207061,-0.486612,0.029734,-0.013217,-0.966428,1.974097,-2.842346,-51.451859
870,-0.199004,-0.207061,-0.468299,0.062662,-0.030083,-0.980081,1.722267,-1.2059,-51.514889
871,-0.208207,-0.204667,-0.46045,0.004035,-0.020446,-0.985703,1.28164,-1.394698,-50.948349
872,-0.199004,-0.190304,-0.476147,0.019295,-0.032492,-0.941533,0.966927,-0.765273,-52.899654
873,-0.199004,-0.204667,-0.478763,0.034552,-0.04213,-0.97205,1.722267,-1.142868,-54.28442
874,-0.189802,-0.18791,-0.468299,0.052221,-0.050965,-1.000963,2.477607,-1.646528,-57.872173
875,-0.1829,-0.185517,-0.489228,0.069087,-0.007597,-0.977672,1.28164,0.178865,-60.138191
876,-0.1829,-0.185517,-0.489228,0.032948,-0.012415,-0.998554,2.162894,-1.079985,-57.809135
877,-0.1829,-0.178335,-0.46045,0.012066,-0.013217,-0.95358,1.974097,-1.96124,-49.75238
878,-0.175998,-0.171154,-0.476147,0.014475,-0.023659,-0.976066,0.652215,0.934205,-53.403164
879,-0.175998,-0.178335,-0.476147,-0.005602,-0.012415,-0.961611,1.785299,-2.527633,-54.78793
880,-0.164495,-0.16876,-0.499693,0.042583,-0.022052,-0.988917,1.659384,-1.268783,-57.935051
881,-0.159894,-0.175942,-0.491844,0.008853,-0.02125,-0.970444,1.28164,0.682375,-54.850815
882,-0.159894,-0.175942,-0.491844,0.004837,0.002845,-0.964822,1.974097,-1.331815,-50.507721
883,-0.150691,-0.163973,-0.470915,0.009657,-0.030083,-0.965626,1.28164,-1.268783,-46.794052
884,-0.159894,-0.163973,-0.489228,0.053827,-0.014021,-0.99775,1.533469,-0.513443,-52.081284
885,-0.150691,-0.171154,-0.468299,0.040979,-0.038114,-0.994537,1.785299,-2.275953,-58.060974
886,-0.14839,-0.154398,-0.46045,0.020097,-0.001171,-0.950366,1.974097,-0.954071,-56.487408
887,-0.14839,-0.152004,-0.452602,0.021704,-0.010006,-0.971248,1.407555,-0.135848,-56.361492
888,-0.134587,-0.152004,-0.470915,0.030537,0.005254,-0.984097,2.792319,-2.087155,-65.677101
889,-0.134587,-0.152004,-0.470915,0.037765,-0.010006,-0.969641,2.100012,-1.268783,-65.110703
890,-0.123083,-0.135247,-0.476147,0.014475,-0.015628,-0.973657,1.533469,-1.457581,-62.52998
891,-0.125384,-0.135247,-0.436904,0.036159,-0.038114,-0.97205,1.659384,-0.765273,-57.242748
892,-0.136887,-0.118491,-0.426439,0.036963,-0.015628,-0.97687,0.966927,-0.513443,-50.318924
893,-0.127685,-0.13046,-0.449985,-0.035317,-0.000369,-0.966428,1.596353,-0.576475,-41.63274
894,-0.118482,-0.11131,-0.442137,0.051418,-0.01643,-0.984097,1.533469,-0.324646,-43.3951
895,-0.118482,-0.11131,-0.442137,-0.01042,-0.015628,-0.955988,2.162894,2.570799,-42.073364
896,-0.11158,-0.116097,-0.449985,-0.021664,-0.010808,-0.97205,2.729437,3.640703,-51.766571
897,-0.106979,-0.11131,-0.46045,0.010459,-0.000369,-0.989719,2.540639,1.437715,-56.739239
898,-0.11158,-0.116097,-0.455218,-0.036924,-0.005186,-0.970444,2.603522,0.304779,-53.02557
899,-0.100077,-0.106522,-0.46045,0.010459,0.029346,-0.962413,2.03698,-0.324646,-52.081284
900,-0.093175,-0.104128,-0.439521,0.02893,-0.009202,-0.980081,2.162894,0.493577,-48.682476
901,-0.093175,-0.104128,-0.439521,0.049009,-0.001171,-0.989719,1.911214,-0.198731,-43.772842
902,-0.090875,-0.080191,-0.452602,0.020899,-0.014824,-0.99775,1.28164,-1.331815,-36.471424
903,-0.097776,-0.09216,-0.455218,0.040979,-0.028477,-0.962413,0.337502,-0.324646,-36.282475
904,-0.090875,-0.084978,-0.452602,0.017688,-0.005991,-0.992128,0.400534,-0.324646,-39.681431
905,-0.093175,-0.087372,-0.434288,0.025719,-0.018037,-0.980081,1.596353,-0.828156,-39.366718
906,-0.100077,-0.084978,-0.431672,0.007248,0.006056,-0.977672,1.029959,0.682375,-36.282475
907,-0.083973,-0.087372,-0.442137,0.030537,-0.018037,-0.988917,0.715247,0.304779,-35.338337
908,-0.083973,-0.087372,-0.442137,-0.008816,-0.024461,-0.981688,0.904044,-0.513443,-30.806448
909,-0.086273,-0.070616,-0.439521,0.03375,-0.012415,-0.972855,0.966927,0.115982,-27.34461
910,-0.088574,-0.068222,-0.476147,0.012868,-0.028477,-0.971248,0.463417,-0.387677,-26.966866
911,-0.081672,-0.07301,-0.447369,0.040174,-0.034901,-0.975263,0.400534,-1.017102,-27.722206
912,-0.088574,-0.082585,-0.442137,0.049812,-0.023659,-0.980886,0.966927,-1.017102,-29.673515
913,-0.093175,-0.068222,-0.455218,0.007248,-0.034901,-0.966428,0.526449,-0.261763,-34.268288
914,-0.093175,-0.068222,-0.455218,0.009657,-0.001171,-0.977672,1.344672,-0.70239,-40.688602
915,-0.095476,-0.07301,-0.434288,0.085149,0.005254,-1.061195,2.792319,-1.394698,-40.814514
916,-0.090875,-0.061041,-0.476147,0.032143,-0.070238,-0.965626,2.477607,-5.548993,-42.13625
917,-0.095476,-0.056253,-0.431672,0.031341,-0.097544,-0.902181,0.526449,2.130172,-40.688602
918,-0.086273,-0.051466,-0.431672,0.032948,-0.048554,-1.041118,0.715247,-3.094175,-35.023624
919,-0.086273,-0.044284,-0.415975,0.032948,-0.027674,-0.930289,0.085822,-0.70239,-29.862312
920,-0.083973,-0.046678,-0.444753,0.026521,-0.032492,-0.967233,0.400534,1.689544,-36.219593
921,-0.083973,-0.046678,-0.444753,0.024112,-0.013217,-0.992128,1.848182,-1.268783,-41.129227
922,-0.07477,-0.049072,-0.421207,0.030537,-0.001171,-0.971248,0.841162,-0.765273,-39.366718
923,-0.065568,-0.04189,-0.447369,0.048205,-0.005991,-0.988917,0.652215,-0.072965,-37.100849
924,-0.063267,-0.032316,-0.413358,0.020097,-0.01643,-0.98731,1.28164,-0.891188,-32.946552
925,-0.065568,-0.032316,-0.439521,0.017688,0.002845,-0.985703,0.841162,-1.268783,-32.254097
926,-0.067868,-0.037103,-0.431672,0.016081,-0.007597,-0.964019,-0.228891,0.556609,-34.079487
927,-0.067868,-0.037103,-0.431672,-0.009618,0.009269,-0.983294,1.092842,-0.513443,-33.32415
928,-0.067868,-0.025134,-0.442137,0.015279,-0.001975,-0.97205,0.652215,0.05295,-33.261265
929,-0.058666,-0.022741,-0.463066,0.027326,-0.015628,-0.98731,0.085822,0.115982,-37.981953
930,-0.051764,-0.020347,-0.415975,0.008051,0.004449,-1.004174,1.848182,-1.331815,-39.177921
931,-0.054065,-0.022741,-0.40551,0.024112,-0.035705,-0.976066,0.77813,-0.072965,-33.198383
932,-0.054065,-0.00359,-0.423823,0.032143,-0.018839,-0.964822,0.337502,-0.828156,-33.513096
933,-0.054065,-0.00359,-0.423823,0.038568,-0.025266,-0.97205,0.652215,-0.891188,-39.618549
934,-0.060967,-0.008378,-0.413358,0.01849,-0.012415,-0.969641,1.785299,-0.828156,-42.010334
935,-0.056365,-0.013165,-0.408126,0.017688,-0.026068,-0.965626,0.904044,-0.828156,-33.009438
936,-0.047163,-0.00359,-0.434288,0.032948,-0.012415,-0.98731,0.274619,-0.828156,-26.08576
937,-0.054065,0.013166,-0.40551,0.032948,-0.017235,-0.974459,0.02279,-0.45056,-24.323252
938,-0.054065,0.017954,-0.431672,0.032948,-0.022855,-0.975263,0.652215,-0.639358,-26.148643
939,-0.051764,0.020347,-0.429056,0.024112,-0.015628,-0.984901,0.652215,-1.079985,-24.512049
940,-0.051764,0.020347,-0.429056,-0.012027,-0.005991,-0.970444,-0.103125,-0.576475,-25.330421
941,-0.054065,0.020347,-0.444753,0.016081,-0.010808,-0.950366,0.526449,0.178865,-29.106972
942,-0.047163,0.017954,-0.442137,0.024915,-0.005186,-0.972855,0.966927,-0.765273,-30.743567
943,-0.051764,0.017954,-0.449985,0.024915,-0.027674,-0.984097,0.77813,-0.70239,-32.002415
944,-0.044862,0.022741,-0.463066,0.016081,-0.028477,-0.976066,0.463417,-0.639358,-27.848122
945,-0.049463,0.025135,-0.455218,0.027326,-0.042934,-0.971248,0.904044,-0.576475,-27.34461
946,-0.049463,0.025135,-0.455218,0.035356,-0.01643,-0.980081,0.77813,-0.891188,-30.995249
947,-0.056365,0.027529,-0.442137,0.02331,-0.032492,-0.969641,0.715247,-0.828156,-34.331318
948,-0.054065,0.037104,-0.434288,0.016081,-0.013217,-0.979279,0.463417,-1.142868,-36.786137
949,-0.056365,0.032316,-0.439521,0.016081,-0.010006,-0.955186,0.337502,-0.828156,-33.827808
950,-0.051764,0.041891,-0.426439,-0.01042,-0.006793,-0.980081,0.526449,-0.828156,-34.331318
951,-0.051764,0.039497,-0.439521,0.014475,-0.006793,-0.951973,0.652215,-0.45056,-33.38718
952,-0.051764,0.039497,-0.439521,0.003231,-0.019644,-0.965626,0.400534,-0.576475,-27.470526
953,-0.047163,0.05386,-0.449985,0.016884,-0.022855,-0.970444,-0.103125,-0.765273,-24.449165
954,-0.044862,0.051466,-0.444753,0.01849,-0.029281,-0.977672,-0.228891,-0.387677,-26.148643
955,-0.056365,0.061041,-0.423823,0.036159,-0.024461,-0.960806,0.337502,-0.072965,-28.162834
956,-0.042562,0.063435,-0.426439,0.032143,-0.038114,-1.011403,0.841162,-0.198731,-31.247074
957,-0.047163,0.061041,-0.426439,0.043387,-0.05498,-0.992128,1.092842,-0.891188,-34.268288
958,-0.044862,0.056254,-0.455218,0.036159,-0.02125,-0.957595,0.77813,-0.324646,-38.233784
959,-0.044862,0.056254,-0.455218,0.005642,-0.022855,-0.970444,0.148705,0.115982,-35.212574
960,-0.049463,0.05386,-0.442137,0.021704,-0.02125,-0.976066,1.029959,-1.079985,-31.687704
961,-0.056365,0.063435,-0.436904,0.029734,-0.014824,-0.984901,0.652215,-0.828156,-32.380013
962,-0.065568,0.070616,-0.408126,0.027326,-0.004384,-0.979279,0.274619,-0.639358,-37.100849
963,-0.044862,0.065829,-0.421207,0.010459,-0.018839,-0.952775,0.77813,-1.520613,-40.122059
964,-0.049463,0.075404,-0.436904,0.048205,-0.045343,-0.979279,0.526449,-0.765273,-42.576878
965,-0.049463,0.075404,-0.436904,0.004837,-0.012415,-0.968837,1.344672,-1.017102,-48.304733
966,-0.056365,0.082585,-0.423823,0.052221,-0.026068,-0.979279,1.407555,-1.457581,-53.277252
967,-0.056365,0.099342,-0.40551,0.01849,-0.030886,-0.959202,1.344672,-0.576475,-52.144314
968,-0.049463,0.09216,-0.421207,0.00002,0.009269,-0.990521,1.659384,-0.828156,-54.662014
969,-0.056365,0.104129,-0.408126,0.032143,-0.030083,-0.998554,1.785299,-1.898208,-43.646927
970,-0.049463,0.113704,-0.423823,0.049009,-0.042934,-0.98731,0.966927,0.430694,-36.849018
971,-0.047163,0.113704,-0.395045,0.02331,-0.034099,-0.962413,1.659384,-1.96124,-37.85619
972,-0.047163,0.113704,-0.395045,0.046599,-0.022855,-0.954382,1.218757,-0.072965,-40.436771
973,-0.051764,0.113704,-0.429056,0.026521,-0.034901,-0.971248,1.155874,0.05295,-47.675308
974,-0.054065,0.128067,-0.415975,0.030537,-0.020446,-0.978475,1.28164,-1.898208,-53.214367
975,-0.042562,0.123279,-0.423823,0.036159,-0.033297,-0.974459,1.659384,-1.520613,-51.074265
976,-0.056365,0.130461,-0.408126,0.04419,-0.022052,-0.983294,0.77813,-0.828156,-50.130127
977,-0.047163,0.142429,-0.418591,0.036963,-0.026068,-0.956791,1.029959,-0.765273,-50.256039
978,-0.047163,0.142429,-0.418591,0.043387,-0.02687,-0.964019,2.666405,-1.268783,-49.185989
979,-0.044862,0.144823,-0.415975,0.021704,0.011678,-0.978475,1.218757,-0.45056,-49.185989
980,-0.044862,0.149611,-0.46045,0.029734,-0.034901,-0.983294,0.966927,-1.079985,-46.919968
981,-0.051764,0.163973,-0.447369,0.011264,-0.008399,-0.97205,1.974097,-1.2059,-49.563583
982,-0.054065,0.175942,-0.429056,0.016884,0.007662,-0.992128,1.533469,-1.268783,-54.410336
983,-0.040261,0.18073,-0.444753,0.032143,-0.029281,-0.968837,1.470587,-0.70239,-55.102646
984,-0.040261,0.18073,-0.444753,0.006444,-0.008399,-0.955988,2.288809,-0.765273,-53.969707
985,-0.047163,0.185517,-0.436904,0.040174,-0.027674,-0.959202,1.533469,-0.639358,-52.96254
986,-0.049463,0.187911,-0.423823,0.037765,-0.045343,-0.977672,1.344672,-0.70239,-55.039761
987,-0.058666,0.187911,-0.439521,0.002428,0.008465,-0.984901,1.785299,-0.954071,-60.326992
988,-0.065568,0.195092,-0.418591,0.005642,-0.023659,-0.989719,1.155874,-1.268783,-61.64872
989,-0.051764,0.19988,-0.444753,0.004035,-0.01643,-0.949564,2.729437,-1.331815,-59.131023
990,-0.054065,0.207061,-0.449985,0.009657,0.001238,-0.97687,1.344672,-0.009933,-56.298611
991,-0.054065,0.207061,-0.449985,0.036963,-0.046949,-0.955186,0.966927,-0.891188,-52.333115
992,-0.054065,0.211849,-0.442137,0.024112,-0.02125,-0.967233,2.03698,-0.765273,-53.717876
993,-0.065568,0.214243,-0.442137,0.029734,-0.029281,-0.975263,1.533469,-0.576475,-56.990917
994,-0.056365,0.21903,-0.423823,0.014475,-0.01643,-0.95358,1.659384,-0.828156,-54.78793
995,-0.07247,0.235786,-0.442137,0.02893,-0.030083,-0.966428,0.966927,-0.45056,-60.515793
996,-0.07477,0.228605,-0.429056,0.016081,-0.028477,-0.964019,2.100012,-1.646528,-65.299507
997,-0.07477,0.228605,-0.429056,0.002428,-0.000369,-0.97205,1.407555,-1.268783,-64.418251
998,-0.081672,0.245362,-0.442137,-0.012027,0.000434,-0.98249,1.596353,-1.457581,-60.641697
999,-0.07247,0.254937,-0.434288,0.046599,-0.067027,-0.98731,2.414724,-0.198731,-56.04678
1000,-0.07247,0.264511,-0.436904,0.020899,-0.040523,-0.988112,2.729437,-0.513443,-57.998089
1001,-0.086273,0.262118,-0.431672,0.014475,-0.010808,-0.947958,1.659384,-0.639358,-58.060974
1002,-0.090875,0.271693,-0.452602,0.01849,-0.046145,-0.964019,2.100012,-0.198731,-60.893383
1003,-0.083973,0.278874,-0.449985,0.007248,0.041393,-0.970444,2.414724,-1.835325,-64.229454
1004,-0.083973,0.278874,-0.449985,0.01849,-0.008399,-0.988917,0.274619,-0.324646,-59.508617
1005,-0.097776,0.286056,-0.426439,0.006444,-0.001975,-0.992932,0.652215,-1.331815,-56.550289
1006,-0.095476,0.290843,-0.449985,0.012868,-0.058192,-0.969641,2.288809,-0.891188,-52.521912
1007,-0.100077,0.307599,-0.457834,0.026521,-0.025266,-0.968035,2.162894,0.430694,-52.836624
1008,-0.100077,0.307599,-0.439521,0.035356,-0.017235,-0.988917,1.659384,0.556609,-48.556564
1009,-0.097776,0.309993,-0.447369,0.030537,-0.03169,-0.968837,2.603522,0.682375,-47.549393
1010,-0.097776,0.309993,-0.447369,0.012066,-0.044539,-0.992128,3.232947,0.493577,-49.185989
1011,-0.11158,0.321962,-0.455218,-0.027286,0.019709,-1.000159,1.155874,4.836669,-53.780762
1012,-0.106979,0.331537,-0.449985,0.046599,-0.072649,-1.020236,3.29583,-4.73077,-61.208099
1013,-0.102378,0.331537,-0.413358,0.009657,0.00204,-0.919045,4.491796,0.178865,-61.334015
1014,-0.120783,0.338718,-0.465683,0.002428,-0.027674,-1.009796,1.785299,-1.331815,-60.138191
1015,-0.120783,0.3459,-0.442137,0.025719,-0.034099,-0.95358,1.029959,-0.135848,-61.774643
1016,-0.120783,0.3459,-0.442137,0.036963,-0.046949,-0.94876,2.603522,-2.590665,-57.179714
1017,-0.125384,0.355475,-0.457834,0.008051,0.001238,-0.983294,1.533469,0.619492,-53.02557
1018,-0.129985,0.360262,-0.463066,0.02331,-0.028477,-0.990521,0.904044,-2.590665,-53.151337
1019,-0.129985,0.353081,-0.465683,0.062662,-0.047752,-0.955186,0.966927,-2.275953,-55.228558
1020,-0.120783,0.355475,-0.473531,0.020097,-0.036508,-0.964019,2.351692,-1.772442,-61.019299
1021,-0.134587,0.374625,-0.463066,0.025719,-0.05498,-0.969641,2.162894,-0.828156,-66.243645
1022,-0.14839,0.367444,-0.452602,0.041781,-0.018037,-0.991325,1.722267,-0.70239,-72.915634
1023,-0.14839,0.367444,-0.452602,0.024112,-0.057389,-0.983294,4.617712,-1.96124,-81.161194
1024,-0.150691,0.377019,-0.465683,-0.007209,0.00686,-0.957595,4.302999,0.430694,-86.700256
1025,-0.169096,0.391381,-0.442137,0.020899,-0.045343,-0.993734,2.351692,-1.583496,-83.553131
1026,-0.166795,0.396169,-0.468299,0.050614,-0.015628,-0.959202,4.302999,2.759597,-81.790619
1027,-0.171397,0.415319,-0.486612,0.022506,-0.017235,-1.014616,3.421744,-1.772442,-78.832291
1028,-0.178299,0.4225,-0.468299,0.02893,-0.038917,-1.029071,2.729437,-0.828156,-74.363281
1029,-0.178299,0.4225,-0.468299,0.03375,-0.02125,-0.988917,1.218757,-1.457581,-70.209137
1030,-0.1852,0.417713,-0.463066,0.039372,-0.010006,-0.977672,1.659384,-1.2059,-65.865898
1031,-0.192102,0.429681,-0.478763,0.003231,-0.017235,-0.985703,1.470587,-1.96124,-61.27113
1032,-0.199004,0.429681,-0.457834,0.032948,0.00204,-0.980886,0.715247,-1.772442,-57.557457
1033,-0.194403,0.439257,-0.442137,0.042583,-0.072649,-0.941533,1.218757,0.05295,-58.501595
1034,-0.210507,0.456013,-0.46045,0.02331,-0.045343,-0.971248,2.100012,-0.072965,-62.278149
1035,-0.210507,0.456013,-0.46045,0.009657,-0.02687,-0.956791,2.666405,-2.46475,-67.502495
1036,-0.205906,0.448832,-0.491844,0.031341,-0.011613,-0.94876,0.715247,1.437715,-69.453796
1037,-0.21971,0.446438,-0.476147,0.003231,-0.035705,-0.97687,2.100012,-2.150038,-69.139084
1038,-0.215108,0.451225,-0.473531,0.002428,-0.013217,-0.996143,2.477607,0.115982,-68.006004
1039,-0.228912,0.467982,-0.489228,0.036159,-0.047752,-0.963217,1.596353,-2.527633,-66.621239
1040,-0.247317,0.477557,-0.491844,-0.007209,0.014891,-0.960806,2.477607,1.689544,-67.250664
1041,-0.245017,0.479951,-0.486612,0.024112,-0.036508,-0.98249,2.540639,-3.534803,-63.78883
1042,-0.245017,0.479951,-0.486612,0.016884,-0.055783,-0.975263,0.589332,0.556609,-61.585835
1043,-0.25652,0.484738,-0.473531,0.025719,-0.013217,-0.979279,0.652215,-1.583496,-59.760448
1044,-0.265722,0.484738,-0.489228,0.024915,-0.029281,-0.973657,1.722267,-1.457581,-59.760448
1045,-0.261121,0.491919,-0.49446,0.002428,-0.035705,-1.0106,1.911214,-1.017102,-58.627518
1046,-0.265722,0.501495,-0.49446,0.041781,-0.022855,-0.932698,1.911214,-0.70239,-54.158504
1047,-0.277225,0.518251,-0.481379,0.003231,-0.003582,-0.973657,1.218757,0.934205,-51.137146
1048,-0.277225,0.518251,-0.481379,0.01849,-0.035705,-0.962413,1.533469,-2.590665,-48.619446
1049,-0.284127,0.51107,-0.491844,0.012868,-0.03169,-0.979279,0.966927,0.556609,-44.276352
1050,-0.286428,0.506282,-0.523239,0.009657,-0.038114,-0.989719,1.155874,-0.765273,-44.276352
1051,-0.291029,0.508676,-0.499693,0.010459,-0.047752,-0.97205,1.218757,-1.835325,-48.052902
1052,-0.304833,0.51107,-0.499693,0.019295,-0.006793,-0.952775,0.526449,-0.765273,-50.885464
1053,-0.297931,0.513463,-0.491844,0.020097,-0.02687,-0.98731,0.841162,-1.142868,-50.444839
1054,-0.316336,0.518251,-0.497077,0.010459,-0.032492,-0.960806,1.848182,-1.772442,-52.899654
1055,-0.316336,0.518251,-0.497077,0.024915,-0.025266,-0.959202,0.966927,-0.261763,-52.207199
1056,-0.309434,0.532614,-0.49446,0.010459,-0.014824,-0.980886,1.218757,-1.017102,-45.661118
1057,-0.320937,0.535007,-0.468299,0.031341,-0.012415,-0.972855,1.092842,-1.017102,-37.541477
1058,-0.325539,0.532614,-0.476147,0.026521,-0.028477,-0.986506,0.652215,-0.135848,-26.966866
1059,-0.325539,0.53022,-0.486612,0.031341,-0.02125,-0.988917,0.211737,-0.576475,-19.099052
1060,-0.327839,0.539795,-0.49446,0.019295,-0.020446,-0.965626,-0.040093,-0.009933,-17.273661
1061,-0.327839,0.539795,-0.49446,0.030537,-0.02125,-0.995341,0.715247,-0.324646,-17.336544
1062,-0.33014,0.546976,-0.465683,0.027326,-0.020446,-0.981688,0.148705,-0.954071,-18.343714
1063,-0.339342,0.537401,-0.499693,0.036963,-0.060601,-0.989719,-0.166008,-0.891188,-23.630943
1064,-0.339342,0.539795,-0.507541,0.041781,-0.030886,-0.975263,0.715247,-1.142868,-27.659323
1065,-0.348545,0.537401,-0.481379,0.008853,-0.039721,-0.972855,0.526449,-1.394698,-31.62467
1066,-0.350845,0.546976,-0.499693,0.031341,-0.047752,-0.968035,0.715247,-0.576475,-34.142521
1067,-0.350845,0.546976,-0.499693,0.01849,-0.025266,-0.97205,0.841162,0.367662,-34.394199
1068,-0.357747,0.554157,-0.518006,0.024112,-0.026068,-0.966428,0.715247,-0.513443,-33.38718
1069,-0.362349,0.551763,-0.49446,0.021704,-0.026068,-0.988112,0.400534,-0.954071,-32.757755
1070,-0.357747,0.546976,-0.483996,0.028128,-0.046145,-0.970444,0.274619,-0.387677,-31.561785
1071,-0.364649,0.554157,-0.504925,0.024112,-0.009202,-0.988917,1.092842,-0.009933,-26.903984
1072,-0.360048,0.54937,-0.518006,0.017688,-0.013217,-0.949564,0.77813,0.115982,-19.287851
1073,-0.360048,0.54937,-0.518006,0.025719,-0.034099,-0.973657,0.02279,-0.009933,-14.063503
1074,-0.360048,0.54937,-0.518006,0.015279,-0.019644,-0.967233,0.337502,-0.45056,-12.426909
1075,-0.376152,0.554157,-0.499693,0.026521,-0.034099,-0.97687,0.526449,-1.017102,-13.748791
1076,-0.371551,0.556551,-0.51539,0.027326,-0.037312,-0.971248,0.148705,0.178865,-15.511153
1077,-0.380754,0.551763,-0.531087,0.01849,-0.042934,-0.973657,0.274619,0.304779,-21.679636
1078,-0.369251,0.556551,-0.499693,0.021704,-0.036508,-0.959202,0.148705,-0.70239,-26.463356
1079,-0.376152,0.56852,-0.502309,0.027326,-0.04213,-0.974459,0.400534,0.241748,-30.617649
1080,-0.376152,0.56852,-0.502309,0.027326,-0.046145,-0.976066,0.77813,0.178865,-31.561785
1081,-0.376152,0.554157,-0.510158,0.022506,-0.013217,-0.991325,0.77813,-0.954071,-28.036919
1082,-0.387656,0.561339,-0.533703,0.036159,-0.058996,-0.977672,-0.543603,-0.765273,-29.358801
1083,-0.389956,0.558945,-0.512774,0.004837,0.011678,-0.95358,1.470587,-0.828156,-29.547596
1084,-0.383054,0.558945,-0.507541,0.019295,-0.034099,-0.950366,0.211737,-0.198731,-28.666346
1085,-0.401459,0.563733,-0.478763,0.006444,-0.018037,-0.973657,0.463417,0.430694,-26.463356
1086,-0.401459,0.558945,-0.481379,0.043387,-0.053374,-0.960004,0.337502,-1.268783,-32.002415
1087,-0.401459,0.558945,-0.481379,0.012868,-0.017235,-0.984901,0.966927,0.05295,-34.771946
1088,-0.399159,0.558945,-0.502309,0.039372,-0.022052,-0.999356,1.218757,-1.079985,-36.345509
1089,-0.406061,0.56852,-0.491844,0.008051,-0.032492,-0.978475,0.904044,0.556609,-36.156712
1090,-0.410662,0.573308,-0.491844,0.032948,-0.03169,-0.98731,1.659384,-1.772442,-32.317127
1091,-0.406061,0.570914,-0.497077,0.045796,-0.018839,-0.99775,0.337502,-0.765273,-28.540428
1092,-0.415263,0.563733,-0.512774,0.02893,-0.030083,-1.001765,0.274619,-0.198731,-30.11414
1093,-0.415263,0.563733,-0.512774,0.031341,-0.041327,-0.973657,0.966927,-1.268783,-31.813618
1094,-0.415263,0.573308,-0.533703,0.04419,-0.058192,-0.988112,1.218757,-0.45056,-34.64603
1095,-0.419864,0.570914,-0.520622,-0.012027,-0.018839,-0.960004,0.904044,0.115982,-31.435875
1096,-0.422165,0.570914,-0.507541,0.043387,-0.056585,-0.964019,0.148705,-0.387677,-35.778965
1097,-0.426766,0.566126,-0.499693,0.02893,-0.034099,-0.979279,1.596353,-0.891188,-36.40839
1098,-0.44057,0.566126,-0.483996,0.026521,-0.038114,-0.969641,0.966927,-0.135848,-40.059177
1099,-0.44057,0.566126,-0.483996,-0.002389,0.00686,-0.966428,0.463417,0.241748,-38.296665
1100,-0.44057,0.582882,-0.497077,0.021704,-0.06542,-0.978475,1.029959,-1.457581,-37.793156
1101,-0.442871,0.573308,-0.512774,0.024915,-0.01643,-0.964019,1.533469,-1.835325,-30.680534
1102,-0.454374,0.580489,-0.499693,0.036963,-0.04213,-0.984901,0.02279,1.500747,-28.855289
1103,-0.458975,0.580489,-0.51539,0.020899,-0.030886,-0.978475,0.526449,0.304779,-21.868435
1104,-0.458975,0.585276,-0.507541,0.014475,-0.039721,-0.962413,0.841162,-1.017102,-19.161936
1105,-0.456674,0.582882,-0.504925,0.050614,-0.06542,-0.969641,0.463417,0.241748,-25.141623
1106,-0.456674,0.582882,-0.504925,0.038568,-0.082284,-0.967233,0.904044,0.115982,-37.100849
1107,-0.463576,0.570914,-0.533703,0.041781,-0.061405,-0.980081,2.162894,-0.891188,-44.842896
1108,-0.461276,0.582882,-0.504925,0.066678,0.006056,-0.999356,1.155874,1.186034,-51.640804
1109,-0.475079,0.582882,-0.486612,-0.048168,-0.030886,-1.03148,0.400534,-1.394698,-50.633636
1110,-0.479681,0.590064,-0.525855,0.066678,-0.067027,-0.957595,3.736457,-6.241301,-54.725048
1111,-0.486582,0.597245,-0.499693,0.011264,0.002845,-0.917438,2.03698,2.255938,-55.165527
1112,-0.486582,0.597245,-0.499693,0.032948,-0.028477,-1.02104,0.02279,0.241748,-50.444839
1113,-0.500386,0.599639,-0.504925,0.008853,-0.030083,-0.941533,3.044149,-1.520613,-47.360596
1114,-0.509589,0.602033,-0.512774,0.002428,-0.036508,-0.951973,1.407555,0.619492,-38.296665
1115,-0.511889,0.590064,-0.486612,0.02331,-0.025266,-1.023449,0.841162,-1.2059,-35.590168
1116,-0.523393,0.590064,-0.51539,0.022506,-0.010006,-0.971248,0.652215,-1.96124,-28.036919
1117,-0.509589,0.594851,-0.531087,0.040174,-0.023659,-0.963217,0.589332,0.682375,-21.553722
1118,-0.509589,0.594851,-0.531087,0.024112,-0.02687,-1.000963,0.841162,-1.2059,-14.000621
1119,-0.516491,0.585276,-0.502309,0.034552,-0.032492,-0.955988,-0.543603,-0.009933,-13.559994
1120,-0.518791,0.604427,-0.528471,0.038568,-0.026068,-0.959202,-0.73255,0.682375,-15.448269
1121,-0.527994,0.599639,-0.518006,0.030537,-0.014824,-0.992128,0.966927,-1.835325,-21.994349
1122,-0.518791,0.578095,-0.520622,0.028128,-0.019644,-0.980081,-0.040093,-1.394698,-24.323252
1123,-0.521092,0.590064,-0.525855,0.068283,-0.050965,-0.97687,-0.606635,0.430694,-34.457233
1124,-0.525693,0.58767,-0.518006,0.03375,-0.079876,-0.970444,1.470587,-1.898208,-47.612427
1125,-0.525693,0.58767,-0.518006,0.017688,-0.02125,-0.95358,1.785299,-2.150038,-57.620342
1126,-0.525693,0.58767,-0.518006,0.021704,-0.02687,-0.989719,-0.103125,-0.198731,-54.976727
1127,-0.5487,0.58767,-0.531087,0.058647,-0.071042,-0.991325,1.029959,-1.457581,-47.171799
1128,-0.551,0.592458,-0.531087,-0.002389,0.018102,-0.968035,2.288809,-3.031292,-40.122059
1129,-0.544098,0.580489,-0.53632,-0.003194,-0.029281,-0.954382,-0.606635,2.444884,-36.345509
1130,-0.564804,0.590064,-0.528471,0.03375,-0.050965,-0.980886,1.596353,0.556609,-37.981953
1131,-0.564804,0.590064,-0.528471,0.004035,0.004449,-0.964019,1.974097,-1.96124,-35.590168
1132,-0.569405,0.592458,-0.525855,0.045796,-0.047752,-0.981688,-0.417838,-0.828156,-33.953575
1133,-0.560203,0.58767,-0.53632,0.016081,-0.014021,-1.001765,0.337502,-0.70239,-34.520115
1134,-0.569405,0.599639,-0.533703,0.01849,-0.018037,-0.977672,1.155874,-0.70239,-34.897861
1135,-0.574006,0.58767,-0.528471,0.012066,-0.02687,-0.980886,0.841162,-2.087155,-36.40839
1136,-0.583209,0.592458,-0.528471,0.032948,-0.044539,-0.963217,-0.040093,-0.387677,-35.716084
1137,-0.580908,0.594851,-0.525855,0.037765,-0.041327,-0.980081,0.904044,-0.828156,-37.100849
1138,-0.580908,0.594851,-0.525855,0.024112,-0.030886,-0.98731,1.533469,-1.079985,-34.897861
1139,-0.58781,0.599639,-0.546784,0.050614,-0.032492,-0.964019,0.652215,-0.324646,-39.555664
1140,-0.58781,0.597245,-0.525855,0.036159,-0.050161,-0.991325,1.218757,0.241748,-43.772842
1141,-0.585509,0.592458,-0.528471,0.052221,-0.046145,-0.992128,1.911214,-1.646528,-44.779865
1142,-0.603914,0.592458,-0.533703,0.001626,-0.013217,-0.969641,-0.417838,-0.828156,-43.332214
1143,-0.603914,0.58767,-0.541552,0.02893,-0.022855,-0.981688,0.77813,-0.891188,-40.94043
1144,-0.603914,0.58767,-0.541552,0.039372,-0.034901,-0.984097,1.28164,-0.639358,-36.030796
1145,-0.601614,0.592458,-0.559866,0.020899,-0.010808,-0.980081,0.77813,-0.009933,-14.378216
1146,-0.608516,0.585276,-0.552017,0.024112,-0.03169,-0.965626,-0.606635,0.430694,-3.237214
1147,-0.617718,0.592458,-0.531087,0.02331,-0.038114,-0.97687,-0.354806,-0.576475,-1.915481
1148,-0.620019,0.597245,-0.528471,0.036159,-0.032492,-0.970444,0.400534,-0.261763,-3.489044
1149,-0.620019,0.597245,-0.528471,0.030537,-0.030886,-0.979279,-0.291923,0.05295,-3.363129
1150,-0.620019,0.597245,-0.528471,0.027326,-0.037312,-0.984901,-0.543603,-0.198731,-4.873809
1151,-0.62232,0.597245,-0.541552,0.028128,-0.036508,-0.970444,0.274619,-0.072965,-5.943861
1152,-0.617718,0.594851,-0.504925,0.042583,-0.022052,-0.976066,0.400534,-0.513443,-8.902188
1153,-0.615418,0.60682,-0.525855,0.006444,-0.030083,-1.000159,-0.543603,-1.2059,-18.154766
1154,-0.620019,0.602033,-0.528471,0.042583,-0.032492,-0.97205,0.652215,-1.394698,-20.546701
1155,-0.613117,0.602033,-0.520622,0.008051,-0.005186,-0.970444,0.589332,0.304779,-5.062606
1156,-0.626921,0.599639,-0.541552,0.031341,-0.038114,-0.986506,-1.361975,-0.387677,-2.355959
1157,-0.626921,0.599639,-0.541552,0.026521,-0.033297,-0.961611,-0.417838,0.430694,-2.104279
1158,-0.617718,0.599639,-0.559866,0.038568,-0.038917,-0.994537,-0.103125,-0.135848,-1.411822
1159,-0.626921,0.60682,-0.554633,0.019295,-0.035705,-0.958397,-0.291923,-0.009933,-2.922502
1160,-0.626921,0.592458,-0.510158,0.032948,-0.03169,-0.961611,-1.23606,0.619492,-4.559096
1161,-0.62232,0.592458,-0.510158,0.026521,-0.034099,-0.968035,0.526449,-0.135848,-3.614959
1162,-0.626921,0.597245,-0.533703,0.024915,-0.01643,-0.979279,0.337502,0.493577,-2.670672
1163,-0.626921,0.597245,-0.533703,0.024112,-0.043736,-0.958397,-0.480721,0.745407,-1.789566
1164,-0.631522,0.602033,-0.53632,0.030537,-0.028477,-0.99775,0.148705,0.115982,-1.789566
1165,-0.62462,0.597245,-0.538936,0.027326,-0.024461,-0.970444,-0.040093,-0.513443,-2.607789
1166,-0.640725,0.604427,-0.541552,0.024915,-0.034901,-0.986506,-0.291923,-0.261763,-8.650359
1167,-0.631522,0.592458,-0.510158,0.041781,-0.013217,-0.977672,0.652215,-0.45056,-9.15387
1168,-0.62462,0.58767,-0.528471,0.017688,-0.034901,-0.999356,0.085822,0.745407,-0.908311
1169,-0.62462,0.594851,-0.525855,0.017688,-0.034099,-0.974459,-0.166008,-0.45056,-0.656482
1170,-0.62462,0.594851,-0.525855,0.029734,-0.035705,-0.965626,-0.543603,0.367662,-0.593599
1171,-0.62232,0.594851,-0.523239,0.029734,-0.036508,-0.983294,-0.354806,-0.261763,-0.530716
1172,-0.640725,0.599639,-0.546784,0.026521,-0.024461,-0.980081,-0.228891,-0.828156,-0.216004
1173,-0.626921,0.58767,-0.549401,0.031341,-0.04213,-0.977672,-0.543603,0.05295,-0.908311
1174,-0.62462,0.590064,-0.541552,0.035356,-0.030083,-0.959202,-0.291923,0.115982,-1.160141
1175,-0.62232,0.592458,-0.520622,0.034552,-0.026068,-0.983294,-0.040093,-0.45056,-1.789566
1176,-0.62232,0.592458,-0.520622,0.044994,-0.041327,-0.964019,-1.047263,-0.261763,-5.629148
1177,-0.633823,0.597245,-0.507541,0.020097,-0.029281,-0.968035,0.337502,-0.45056,-2.355959
1178,-0.626921,0.599639,-0.554633,0.022506,-0.026068,-0.950366,-0.354806,0.115982,-2.796587
1179,-0.629221,0.580489,-0.523239,0.03375,-0.034901,-0.981688,-0.858316,-0.135848,-3.1113
1180,-0.633823,0.590064,-0.525855,0.024915,-0.03169,-0.97205,0.02279,-0.387677,-2.293077
1181,-0.636123,0.597245,-0.53632,0.034552,-0.030083,-0.970444,-0.417838,-0.513443,-4.37015
1182,-0.636123,0.597245,-0.53632,0.020097,-0.022052,-0.97205,-0.606635,-0.135848,-2.733704
1183,-0.62462,0.592458,-0.510158,0.02893,-0.027674,-0.968837,-0.417838,-0.828156,-1.034226
1184,-0.631522,0.592458,-0.549401,0.032143,-0.035705,-0.999356,-0.354806,-0.45056,-0.845429
1185,-0.62232,0.582882,-0.531087,0.02331,-0.015628,-0.97687,-0.417838,-0.198731,-0.782397
1186,-0.638424,0.582882,-0.518006,0.031341,-0.036508,-0.976066,-0.795433,-0.198731,-0.908311
1187,-0.629221,0.594851,-0.531087,0.017688,-0.035705,-0.972855,-0.354806,0.115982,-3.363129
1188,-0.640725,0.580489,-0.507541,0.040174,-0.034099,-0.98249,-0.040093,0.304779,-7.706222
1189,-0.640725,0.580489,-0.507541,0.011264,-0.022052,-0.961611,-0.417838,-0.198731,-4.307266
1190,-0.631522,0.58767,-0.512774,0.032143,-0.015628,-0.97205,-0.984231,-0.324646,-11.923399
1191,-0.629221,0.592458,-0.544168,0.031341,-0.014824,-0.980081,0.966927,-0.891188,-12.049314
1192,-0.626921,0.594851,-0.544168,0.016081,-0.033297,-0.980886,0.085822,0.619492,-11.797484
1193,-0.631522,0.590064,-0.538936,0.029734,-0.041327,-0.965626,-0.291923,-0.45056,-11.860516
1194,-0.633823,0.590064,-0.538936,0.027326,-0.047752,-0.973657,1.155874,-0.70239,-26.652153
1195,-0.633823,0.590064,-0.538936,0.042583,-0.060601,-0.951171,1.218757,1.060119,-31.37299
1196,-0.631522,0.58767,-0.557249,0.024112,0.00686,-0.989719,0.274619,-1.898208,-41.947453
1197,-0.645326,0.58767,-0.531087,0.032143,-0.026068,-0.968035,0.589332,-1.079985,-47.360596
1198,-0.638424,0.58767,-0.523239,0.036963,-0.034099,-0.964822,1.155874,-0.45056,-40.185089
1199,-0.647627,0.590064,-0.552017,0.002428,-0.046949,-0.995341,2.03698,-1.520613,-38.863209
1200,-0.65913,0.592458,-0.510158,0.015279,-0.043736,-0.958397,-0.606635,-0.954071,-36.786137
1201,-0.65913,0.592458,-0.510158,0.014475,-0.018839,-0.955988,1.029959,-1.520613,-40.562687
1202,-0.66143,0.585276,-0.538936,0.032948,-0.037312,-0.995341,0.274619,-0.387677,-40.877399
1203,-0.65913,0.599639,-0.528471,0.039372,-0.044539,-0.973657,1.785299,-2.212921,-42.95462
1204,-0.668332,0.580489,-0.502309,0.002428,0.025331,-0.979279,-0.291923,-0.70239,-45.22049
1205,-0.675234,0.58767,-0.531087,0.053827,-0.07586,-0.963217,1.218757,-0.954071,-48.115936
1206,-0.679835,0.578095,-0.528471,0.008051,-0.025266,-0.968035,1.659384,0.241748,-50.822433
1207,-0.668332,0.575701,-0.549401,0.036963,-0.01643,-0.996947,0.841162,-2.087155,-46.857086
1208,-0.668332,0.575701,-0.549401,0.03375,-0.032492,-0.962413,0.589332,-1.646528,-40.310856
1209,-0.693639,0.578095,-0.525855,0.03375,-0.022052,-0.961611,0.400534,-0.324646,-35.967762
1210,-0.700541,0.582882,-0.504925,0.021704,-0.024461,-0.986506,1.218757,-0.324646,-31.750589
1211,-0.700541,0.56852,-0.528471,0.021704,-0.034901,-0.945549,0.400534,0.430694,-28.225716
1212,-0.709743,0.566126,-0.546784,0.01849,-0.034099,-0.985703,0.841162,-0.198731,-24.889793
1213,-0.712044,0.578095,-0.557249,0.008051,-0.017235,-0.97205,0.274619,-0.891188,-17.021832
1214,-0.712044,0.578095,-0.557249,0.020097,-0.036508,-0.950366,0.085822,0.934205,-14.378216
1215,-0.716645,0.573308,-0.525855,0.020899,-0.034901,-0.986506,0.400534,-0.009933,-11.545803
1216,-0.718946,0.573308,-0.546784,0.031341,-0.030886,-0.968837,0.400534,-0.70239,-9.468582
1217,-0.723547,0.56852,-0.53632,0.026521,-0.038114,-0.994537,-0.795433,-0.009933,-9.468582
1218,-0.721246,0.578095,-0.528471,0.032948,-0.032492,-0.980081,0.02279,-1.017102,-11.105176
1219,-0.725848,0.578095,-0.554633,0.022506,-0.023659,-0.983294,-0.040093,-0.70239,-13.748791
1220,-0.721246,0.585276,-0.562482,0.022506,-0.034099,-0.980886,-0.354806,0.367662,-12.489941
1221,-0.721246,0.585276,-0.562482,0.037765,-0.054176,-0.989719,0.02279,-0.576475,-10.475751
1222,-0.718946,0.580489,-0.544168,0.016081,-0.027674,-0.962413,0.02279,-0.765273,-11.168059
1223,-0.728148,0.578095,-0.533703,0.029734,-0.035705,-0.972855,-0.354806,-0.324646,-16.140577
1224,-0.728148,0.580489,-0.525855,0.04419,-0.048554,-0.993734,0.148705,-0.261763,-19.917276
1225,-0.728148,0.570914,-0.520622,0.015279,-0.030083,-0.945549,0.904044,-0.954071,-23.693827
1226,-0.73505,0.566126,-0.512774,0.034552,-0.035705,-0.986506,0.337502,-0.198731,-25.645134
1227,-0.73505,0.566126,-0.512774,0.037765,-0.030083,-0.991325,0.77813,-0.135848,-20.672615
1228,-0.723547,0.56852,-0.528471,0.011264,-0.018839,-0.988112,0.274619,-0.954071,-18.091885
1229,-0.721246,0.566126,-0.538936,0.037765,-0.034099,-0.980886,0.148705,-0.261763,-18.658426
1230,-0.73505,0.570914,-0.520622,0.021704,-0.04213,-0.980081,1.029959,0.115982,-20.798382
1231,-0.728148,0.561339,-0.512774,-0.011224,-0.037312,-0.947958,0.526449,1.123002,-26.274559
1232,-0.730449,0.570914,-0.531087,0.006444,-0.039721,-1.001765,-0.103125,-0.261763,-26.022728
1233,-0.730449,0.570914,-0.531087,0.038568,-0.022855,-0.972855,1.470587,-2.087155,-28.60346
1234,-0.728148,0.56852,-0.533703,0.035356,-0.051767,-0.957595,0.526449,0.115982,-33.198383
1235,-0.741952,0.570914,-0.518006,0.031341,-0.014021,-0.994537,1.155874,-0.639358,-37.793156
1236,-0.741952,0.566126,-0.53632,0.013673,-0.03169,-0.97687,1.218757,-0.828156,-30.239904
1237,-0.751155,0.575701,-0.552017,0.022506,-0.034099,-0.959202,0.02279,0.493577,-29.484715
1238,-0.744253,0.556551,-0.554633,0.016081,-0.020446,-0.973657,0.652215,-0.828156,-31.498907
1239,-0.758057,0.566126,-0.546784,0.022506,-0.028477,-0.964822,-0.103125,-0.072965,-30.995249
1240,-0.758057,0.566126,-0.546784,0.038568,-0.046949,-0.993734,0.337502,-0.639358,-28.918175
1241,-0.760357,0.570914,-0.554633,0.052221,-0.042934,-0.984901,0.841162,-0.45056,-30.617649
1242,-0.755756,0.566126,-0.554633,0.006444,-0.008399,-0.996143,0.02279,-2.275953,-33.701893
1243,-0.762658,0.566126,-0.531087,0.081133,-0.05498,-0.974459,1.155874,0.934205,-39.555664
1244,-0.776462,0.561339,-0.546784,0.022506,-0.022855,-0.990521,2.225926,-1.898208,-41.318027
1245,-0.776462,0.558945,-0.567714,0.040174,-0.045343,-0.964019,-0.040093,-1.017102,-43.206303
1246,-0.776462,0.558945,-0.567714,0.031341,-0.045343,-0.992932,1.029959,-0.009933,-45.849915
1247,-0.778762,0.563733,-0.51539,0.039372,-0.047752,-0.97205,1.28164,-1.583496,-46.605255
1248,-0.776462,0.561339,-0.528471,0.010459,-0.040523,-1.001765,1.785299,0.682375,-48.934158
1249,-0.778762,0.551763,-0.554633,0.022506,-0.029281,-0.969641,0.841162,-1.70941,-48.745361
1250,-0.790265,0.554157,-0.518006,-0.005602,-0.005991,-0.988917,1.28164,-0.324646,-42.95462
1251,-0.797167,0.561339,-0.531087,0.040174,-0.063011,-0.95358,0.715247,0.682375,-36.59734
1252,-0.799468,0.556551,-0.533703,0.027326,-0.026068,-0.991325,1.218757,0.241748,-32.254097
1253,-0.799468,0.556551,-0.533703,0.024112,-0.041327,-1.000159,0.77813,0.05295,-28.162834
1254,-0.801769,0.556551,-0.525855,0.016884,-0.02125,-0.980081,-0.166008,-0.891188,-25.833931
1255,-0.792566,0.554157,-0.53632,0.036159,-0.02687,-0.960004,0.400534,-0.072965,-27.281578
1256,-0.799468,0.544582,-0.504925,0.020899,-0.023659,-0.995341,0.904044,-0.891188,-30.428852
1257,-0.801769,0.551763,-0.528471,0.031341,-0.03169,-0.95358,0.841162,-1.079985,-26.148643
1258,-0.810971,0.546976,-0.51539,0.040174,-0.025266,-0.97687,0.589332,-0.387677,-20.798382
1259,-0.810971,0.546976,-0.51539,0.016884,-0.02687,-0.985703,-0.166008,-0.198731,-19.224819
1260,-0.810971,0.546976,-0.523239,0.042583,-0.050161,-0.965626,0.274619,0.493577,-21.176126
1261,-0.797167,0.542189,-0.533703,0.012868,-0.046949,-0.983294,0.904044,0.430694,-27.659323
1262,-0.801769,0.539795,-0.549401,0.024112,-0.055783,-0.988112,0.652215,-1.2059,-33.32415
1263,-0.815572,0.537401,-0.533703,0.024915,-0.018037,-0.986506,0.337502,-2.087155,-30.806448
1264,-0.80637,0.546976,-0.538936,0.026521,-0.034901,-0.962413,-0.040093,0.178865,-31.247074
1265,-0.80637,0.546976,-0.538936,0.007248,-0.022855,-0.977672,0.77813,0.493577,-29.421686
1266,-0.817873,0.539795,-0.557249,0.026521,-0.029281,-1.004174,0.966927,-0.765273,-25.393303
1267,-0.824775,0.535007,-0.549401,0.036159,-0.01643,-0.957595,0.463417,0.556609,-27.407494
1268,-0.824775,0.523038,-0.533703,0.032948,-0.022855,-0.995341,0.841162,-0.513443,-26.778069
1269,-0.80637,0.523038,-0.53632,0.002428,-0.046145,-0.968035,0.966927,-0.513443,-27.722206
1270,-0.813272,0.53022,-0.567714,0.02331,-0.022052,-0.970444,0.337502,-0.639358,-28.351631
1271,-0.824775,0.527826,-0.578179,0.031341,-0.048554,-0.969641,1.092842,-0.261763,-27.722206
1272,-0.824775,0.527826,-0.578179,0.009657,-0.03169,-0.963217,0.274619,-0.639358,-29.610483
1273,-0.836278,0.532614,-0.557249,0.028128,-0.032492,-0.988917,0.274619,-0.072965,-25.456335
1274,-0.831677,0.523038,-0.533703,0.035356,-0.03169,-0.975263,0.463417,0.871322,-26.274559
1275,-0.838578,0.518251,-0.533703,0.024915,-0.002777,-0.989719,0.652215,-2.087155,-26.903984
1276,-0.836278,0.515857,-0.541552,0.030537,-0.02687,-0.963217,0.526449,-0.072965,-23.253199
1277,-0.84318,0.51107,-0.544168,0.036159,-0.041327,-0.986506,0.463417,0.80829,-24.575081
1278,-0.84318,0.51107,-0.544168,0.052221,-0.03169,-0.998554,1.029959,-0.828156,-24.512049
1279,-0.847781,0.513463,-0.541552,0.02331,-0.02125,-0.983294,0.337502,-1.772442,-24.260368
1280,-0.850082,0.515857,-0.520622,0.000822,-0.026068,-0.94876,-0.040093,0.178865,-22.686806
1281,-0.852382,0.496707,-0.512774,0.05463,-0.041327,-0.954382,-0.040093,-0.513443,-20.861414
1282,-0.852382,0.515857,-0.538936,0.026521,-0.034901,-1.003372,0.652215,-1.457581,-26.148643
1283,-0.856983,0.503888,-0.531087,0.028128,-0.018839,-0.94876,0.463417,-1.583496,-26.274559
1284,-0.856983,0.503888,-0.531087,0.01849,-0.023659,-0.981688,-0.228891,0.934205,-22.56089
1285,-0.847781,0.503888,-0.541552,0.02893,-0.001975,-0.964019,1.659384,-0.828156,-25.519218
1286,-0.856983,0.508676,-0.520622,0.008853,-0.036508,-0.967233,0.02279,0.80829,-23.442146
1287,-0.856983,0.494313,-0.541552,0.040979,-0.030083,-0.980081,-0.166008,-0.513443,-27.218697
1288,-0.861585,0.494313,-0.552017,0.022506,-0.01643,-0.973657,1.155874,-1.772442,-27.218697
1289,-0.861585,0.496707,-0.538936,0.064267,-0.05257,-0.983294,0.02279,-0.135848,-31.247074
1290,-0.866186,0.496707,-0.538936,-0.000785,-0.013217,-0.991325,0.841162,-1.898208,-39.11504
1291,-0.866186,0.496707,-0.538936,0.061858,-0.032492,-0.935107,0.400534,-0.135848,-42.388077
1292,-0.870787,0.496707,-0.523239,0.013673,-0.02687,-1.030678,0.966927,-1.646528,-39.492634
1293,-0.870787,0.496707,-0.523239,0.04419,-0.030886,-0.942335,0.966927,-1.835325,-41.003315
1294,-0.877689,0.491919,-0.53632,0.025719,-0.022052,-0.971248,1.218757,0.745407,-36.912052
1295,-0.884591,0.482344,-0.562482,0.032143,-0.025266,-1.003372,1.029959,-1.017102,-30.365822
1296,-0.886892,0.484738,-0.557249,0.055434,-0.047752,-0.980886,0.400534,-2.401867,-29.232885
