Sequence,Geo-X,Geo-Y,Geo-Z,Acc-X,Acc-Y,Acc-Z,Gyro-X,Gyro-Y,Gyro-z
2,-0.986592,0.130175,0.210427,-1.035606,0.00763,0.097577,1.344681,3.107041,4.051179
3,-0.977317,0.142341,0.223336,-1.032394,0.010039,0.101592,1.596361,3.295839,4.491806
4,-0.981954,0.137474,0.207845,-1.028379,0.002008,0.087939,1.785308,3.736466,4.428923
5,-0.991229,0.14964,0.17428,-1.044441,0.015661,0.136127,1.407564,3.610551,4.806519
6,-0.991229,0.14964,0.17428,-1.029984,0.012448,0.127292,1.533478,3.736466,4.051179
7,-0.981954,0.144774,0.200099,-1.027575,0.011645,0.10079,0.966936,3.358871,4.239976
8,-0.986592,0.147207,0.218172,-1.030788,0.005219,0.104001,1.344681,3.610551,3.988296
9,-0.981954,0.14964,0.220755,-1.029984,0.014856,0.089546,1.029968,3.736466,4.114211
10,-0.981954,0.14964,0.220755,-1.034803,0.013252,0.112836,1.470596,3.547668,4.743636
11,-0.98891,0.147207,0.210427,-1.038016,0.019676,0.12167,1.218766,3.925264,4.051179
12,-0.98891,0.147207,0.210427,-1.042032,0.01807,0.12408,0.904053,3.358871,4.428923
13,-0.977317,0.139907,0.210427,-1.034803,0.016463,0.130505,1.155883,3.484786,4.680604
14,-0.97268,0.137474,0.225918,-1.03159,0.009234,0.107214,0.904053,3.862381,4.114211
15,-0.984273,0.139907,0.207845,-1.03641,0.011645,0.114443,1.470596,3.547668,4.554689
16,-0.984273,0.14964,0.197517,-1.038819,0.013252,0.125685,1.029968,3.736466,4.303008
17,-0.993548,0.152073,0.231082,-1.035606,0.006023,0.09035,1.407564,3.736466,4.114211
18,-0.98891,0.142341,0.223336,-1.029984,0.021283,0.12408,1.407564,2.918243,4.177094
19,-0.98891,0.142341,0.223336,-1.035606,0.019676,0.118458,1.344681,3.925264,4.554689
20,-0.981954,0.147207,0.205263,-1.026772,0.018872,0.125685,1.029968,3.358871,4.428923
21,-0.986592,0.137474,0.194935,-1.03159,0.00763,0.105608,1.344681,3.044158,3.673583
22,-0.98891,0.142341,0.207845,-1.029181,0.011645,0.106412,1.092851,3.547668,4.177094
23,-0.993548,0.14964,0.2285,-1.048456,0.013252,0.112032,1.407564,3.232956,4.365891
24,-0.968042,0.139907,0.233664,-1.035606,0.003614,0.116049,1.344681,3.107041,4.114211
25,-0.974998,0.144774,0.218172,-1.038819,0.009234,0.101592,1.407564,3.925264,4.303008
26,-0.974998,0.144774,0.218172,-1.033999,0.014054,0.101592,1.407564,3.295839,4.239976
27,-0.977317,0.142341,0.225918,-1.029984,0.015661,0.108017,1.407564,3.484786,4.743636
28,-0.984273,0.135041,0.2285,-1.032394,0.008432,0.112032,1.533478,3.421754,3.988296
29,-0.991229,0.144774,0.238828,-1.023559,-0.000401,0.114443,1.659393,3.232956,4.428923
30,-0.981954,0.132608,0.246574,-1.03641,0.005219,0.130505,1.407564,3.421754,4.303008
31,-0.984273,0.132608,0.24141,-1.038819,0.009234,0.104805,1.092851,3.232956,4.239976
32,-0.984273,0.132608,0.24141,-1.039621,0.018872,0.113639,1.596361,3.547668,3.862381
33,-0.986592,0.139907,0.21559,-1.042032,0.009234,0.120867,1.848191,3.421754,4.491806
34,-0.991229,0.156939,0.210427,-1.029181,0.016463,0.108017,1.155883,3.799498,4.554689
35,-0.977317,0.152073,0.207845,-1.032394,0.010039,0.120867,1.407564,3.170073,4.428923
36,-0.979636,0.144774,0.213009,-1.025166,0.005219,0.126489,1.533478,3.610551,4.303008
37,-0.977317,0.14964,0.220755,-1.034803,0.011645,0.117654,1.470596,3.547668,4.365891
38,-0.974998,0.147207,0.223336,-1.033999,0.014054,0.113639,1.407564,3.484786,4.365891
39,-0.974998,0.147207,0.223336,-1.035606,0.006826,0.09597,1.407564,3.547668,4.177094
40,-0.968042,0.159373,0.207845,-1.029181,0.015661,0.073484,1.281649,3.421754,4.554689
41,-0.974998,0.154506,0.223336,-1.03641,0.008432,0.122474,1.344681,3.673583,4.428923
42,-0.981954,0.154506,0.218172,-1.021953,0.003614,0.115245,1.281649,3.736466,4.239976
43,-0.974998,0.139907,0.210427,-1.033999,0.013252,0.123276,1.155883,3.107041,4.051179
44,-0.974998,0.144774,0.223336,-1.033197,0.010039,0.104001,1.407564,3.358871,4.303008
45,-0.974998,0.144774,0.223336,-1.034803,0.010841,0.107214,1.407564,3.673583,3.799498
46,-0.986592,0.139907,0.207845,-1.041228,0.004417,0.108017,1.218766,3.673583,4.554689
47,-0.979636,0.14964,0.2285,-1.03641,0.014856,0.098381,1.596361,3.610551,4.932433
48,-0.977317,0.14964,0.21559,-1.041228,0.016463,0.113639,1.029968,3.610551,4.365891
49,-0.979636,0.14964,0.218172,-1.033999,0.014856,0.112032,1.470596,3.107041,4.114211
50,-0.97268,0.156939,0.210427,-1.029181,0.005219,0.112032,1.281649,3.610551,3.736466
51,-0.977317,0.14964,0.200099,-1.025968,0.01807,0.104001,1.092851,3.421754,4.303008
52,-0.977317,0.14964,0.200099,-1.041228,0.008432,0.112032,1.407564,3.421754,4.239976
53,-0.979636,0.14964,0.207845,-1.026772,0.011645,0.120867,1.470596,3.170073,4.491806
54,-0.979636,0.144774,0.220755,-1.034803,0.008432,0.117654,1.092851,3.862381,4.177094
55,-0.986592,0.142341,0.205263,-1.018741,0.008432,0.138536,1.407564,3.358871,4.303008
56,-0.981954,0.14964,0.207845,-1.035606,0.016463,0.109623,0.715256,3.295839,4.428923
57,-0.979636,0.161806,0.205263,-1.018741,0.00281,0.106412,1.155883,3.484786,4.743636
58,-0.979636,0.161806,0.205263,-1.038016,0.014856,0.130505,1.596361,3.547668,4.051179
59,-0.979636,0.147207,0.223336,-1.041228,0.00763,0.12408,1.344681,3.295839,4.491806
60,-0.979636,0.147207,0.225918,-1.035606,0.006826,0.082317,1.281649,3.610551,4.177094
61,-0.974998,0.152073,0.225918,-1.045243,0.011645,0.099183,1.659393,3.421754,4.428923
62,-0.977317,0.154506,0.189771,-1.029181,0.014054,0.11123,1.659393,3.547668,4.239976
63,-0.984273,0.147207,0.218172,-1.038819,0.013252,0.097577,1.218766,3.610551,4.114211
64,-0.995866,0.152073,0.213009,-1.032394,-0.003614,0.117654,1.344681,3.358871,4.365891
65,-0.995866,0.152073,0.213009,-1.037212,0.012448,0.116049,1.344681,3.358871,4.491806
66,-0.974998,0.144774,0.213009,-1.025166,-0.001205,0.088743,0.966936,3.295839,3.736466
67,-0.974998,0.154506,0.205263,-1.03641,0.001204,0.117654,1.281649,3.107041,3.988296
68,-0.974998,0.135041,0.200099,-1.033197,0.010841,0.108821,1.029968,3.673583,4.177094
69,-0.995866,0.144774,0.218172,-1.035606,0.010841,0.104805,1.344681,3.295839,4.365891
70,-0.986592,0.147207,0.220755,-1.028379,0.010039,0.108821,1.659393,3.170073,4.239976
71,-0.986592,0.147207,0.220755,-1.028379,0.00763,0.137733,1.344681,3.358871,4.491806
72,-0.991229,0.154506,0.213009,-1.033197,0.008432,0.108821,1.596361,3.736466,4.743636
73,-0.984273,0.147207,0.210427,-1.037212,0.014054,0.10079,1.344681,3.421754,3.988296
74,-0.986592,0.147207,0.200099,-1.03159,0.005219,0.105608,1.155883,3.736466,4.491806
75,-0.991229,0.147207,0.225918,-1.038819,0.00763,0.103199,1.218766,3.484786,4.303008
76,-0.993548,0.152073,0.21559,-1.039621,0.015661,0.114443,1.281649,3.358871,4.365891
77,-0.993548,0.147207,0.218172,-1.039621,0.011645,0.114443,1.470596,3.862381,4.428923
78,-0.993548,0.147207,0.218172,-1.037212,0.00281,0.117654,1.407564,3.295839,4.303008
79,-0.986592,0.152073,0.218172,-1.044441,0.015661,0.092759,1.092851,3.547668,4.114211
80,-0.984273,0.154506,0.225918,-1.035606,0.006826,0.116049,1.533478,3.421754,3.925264
81,-0.986592,0.147207,0.2285,-1.033999,0.022085,0.128096,1.155883,3.673583,3.862381
82,-0.991229,0.156939,0.233664,-1.033999,0.009234,0.079908,1.407564,3.673583,4.114211
83,-0.98891,0.14964,0.2285,-1.033197,0.008432,0.105608,0.966936,3.421754,4.051179
84,-0.98891,0.14964,0.236246,-1.040425,0.010841,0.113639,1.281649,3.736466,4.365891
85,-0.98891,0.14964,0.236246,-1.037212,0.012448,0.115245,1.407564,3.421754,4.428923
86,-0.986592,0.152073,0.21559,-1.038016,0.014856,0.128096,1.722276,3.799498,4.491806
87,-0.98891,0.156939,0.21559,-1.030788,0.01807,0.112836,1.281649,3.673583,4.743636
88,-0.98891,0.147207,0.202681,-1.033197,0.00281,0.103199,1.281649,2.981126,3.736466
89,-0.986592,0.152073,0.207845,-1.038016,0.015661,0.12408,1.218766,3.421754,4.239976
90,-0.984273,0.159373,0.225918,-1.03159,0.00281,0.096774,1.281649,3.295839,4.743636
91,-0.984273,0.159373,0.225918,-1.038819,0.014856,0.101592,1.407564,3.232956,4.239976
92,-0.986592,0.144774,0.213009,-1.037212,0.010039,0.106412,1.596361,3.295839,3.925264
93,-0.984273,0.14964,0.238828,-1.038819,0.008432,0.114443,1.596361,3.358871,4.177094
94,-0.981954,0.137474,0.202681,-1.032394,0.00763,0.101592,1.533478,3.925264,4.051179
95,-0.981954,0.152073,0.207845,-1.044441,0.018872,0.12408,0.778139,3.610551,4.617721
96,-0.984273,0.147207,0.225918,-1.034803,0.014856,0.1297,1.218766,3.547668,4.365891
97,-0.98891,0.147207,0.202681,-1.037212,0.011645,0.150582,1.470596,3.925264,4.177094
98,-0.98891,0.147207,0.202681,-1.035606,0.012448,0.110427,1.470596,3.484786,4.177094
99,-0.984273,0.14964,0.24141,-1.041228,0.011645,0.11123,1.155883,3.673583,4.554689
100,-0.977317,0.147207,0.225918,-1.039621,0.00763,0.119261,1.407564,3.547668,4.303008
101,-0.984273,0.147207,0.205263,-1.038016,0.012448,0.147369,1.407564,3.421754,3.925264
102,-0.974998,0.154506,0.236246,-1.029984,0.010039,0.09597,1.281649,3.547668,3.736466
103,-0.981954,0.152073,0.231082,-1.026772,0.012448,0.099986,1.407564,3.610551,4.303008
104,-0.981954,0.152073,0.231082,-1.028379,0.010841,0.113639,1.092851,3.484786,4.051179
105,-0.979636,0.152073,0.210427,-1.03641,0.00763,0.107214,1.344681,3.484786,4.365891
106,-0.97268,0.156939,0.220755,-1.038819,0.020479,0.107214,1.533478,3.107041,4.114211
107,-0.974998,0.159373,0.21559,-1.046047,0.020479,0.095168,1.281649,3.358871,3.673583
108,-0.991229,0.14964,0.218172,-1.037212,0.006023,0.120867,1.218766,3.107041,4.428923
109,-0.98891,0.152073,0.225918,-1.033197,0.00281,0.118458,1.344681,3.232956,4.428923
110,-0.981954,0.161806,0.194935,-1.021953,0.003614,0.114443,1.092851,3.421754,4.428923
111,-0.981954,0.161806,0.194935,-1.025968,-0.002008,0.144158,1.533478,3.547668,4.428923
112,-0.991229,0.159373,0.213009,-1.03641,0.008432,0.130505,1.407564,3.673583,4.617721
113,-0.984273,0.144774,0.220755,-1.03159,0.022085,0.120065,1.470596,3.610551,4.428923
114,-0.979636,0.144774,0.223336,-1.029984,0.010841,0.122474,1.281649,3.295839,4.114211
115,-0.986592,0.156939,0.21559,-1.032394,0.014054,0.087137,1.155883,3.295839,4.680604
116,-0.993548,0.152073,0.238828,-1.034803,0.011645,0.116049,1.218766,3.736466,4.303008
117,-0.993548,0.152073,0.238828,-1.03159,-0.000401,0.122474,1.281649,3.673583,4.051179
118,-0.998185,0.156939,0.233664,-1.026772,0.013252,0.140142,1.092851,3.358871,4.365891
119,-0.991229,0.152073,0.202681,-1.017135,-0.002008,0.123276,1.533478,3.610551,4.114211
120,-0.991229,0.147207,0.2285,-1.029984,0.00763,0.116049,1.344681,3.610551,3.799498
121,-0.984273,0.152073,0.233664,-1.026772,0.004417,0.104001,1.092851,3.044158,4.177094
122,-0.984273,0.14964,0.213009,-1.027575,0.003614,0.11123,1.344681,3.610551,4.617721
123,-0.984273,0.156939,0.207845,-1.033197,0.006023,0.120867,1.092851,3.295839,4.365891
124,-0.984273,0.156939,0.207845,-1.029984,0.010841,0.106412,0.904053,3.547668,3.862381
125,-0.974998,0.164239,0.218172,-1.032394,0.00281,0.10079,1.533478,3.673583,4.114211
126,-0.97268,0.159373,0.225918,-1.033197,0.00763,0.115245,1.155883,3.547668,4.303008
127,-0.979636,0.156939,0.223336,-1.032394,0.011645,0.114443,1.218766,3.610551,4.303008
128,-0.981954,0.156939,0.249155,-1.025166,0.008432,0.119261,1.344681,3.295839,4.365891
129,-0.979636,0.166672,0.231082,-1.029984,0.014054,0.125685,1.281649,3.295839,4.051179
130,-0.979636,0.166672,0.231082,-1.028379,0.010039,0.104805,1.218766,3.358871,3.925264
131,-0.979636,0.152073,0.207845,-1.038016,0.012448,0.107214,1.218766,3.295839,4.051179
132,-0.981954,0.14964,0.220755,-1.03159,0.012448,0.096774,1.344681,3.547668,4.365891
133,-0.979636,0.159373,0.210427,-1.032394,0.01807,0.102396,1.596361,3.421754,4.177094
134,-0.979636,0.166672,0.233664,-1.035606,0.009234,0.12408,1.407564,3.421754,3.925264
135,-0.977317,0.156939,0.207845,-1.040425,0.00763,0.11123,1.281649,3.358871,4.114211
136,-0.977317,0.161806,0.236246,-1.035606,0.003614,0.127292,1.155883,3.421754,4.491806
137,-0.977317,0.161806,0.236246,-1.034803,0.012448,0.117654,1.407564,3.547668,4.617721
138,-0.977317,0.147207,0.18719,-1.025166,0.008432,0.091152,1.470596,3.358871,4.365891
139,-0.977317,0.164239,0.220755,-1.038016,0.024494,0.109623,1.407564,3.610551,3.736466
140,-0.977317,0.156939,0.21559,-1.044441,0.01807,0.098381,1.344681,3.421754,4.680604
141,-0.97268,0.156939,0.233664,-1.042032,0.022085,0.112836,1.470596,3.673583,4.932433
142,-0.977317,0.14964,0.236246,-1.029984,0.005219,0.122474,1.344681,3.421754,4.428923
143,-0.981954,0.14964,0.205263,-1.026772,0.013252,0.119261,1.029968,3.295839,3.862381
144,-0.981954,0.14964,0.205263,-1.042834,0.014856,0.120065,1.155883,3.610551,4.428923
145,-0.979636,0.152073,0.220755,-1.042834,0.013252,0.114443,1.407564,3.170073,4.239976
146,-0.984273,0.152073,0.210427,-1.03159,0.014054,0.128096,1.029968,3.170073,4.177094
147,-0.986592,0.14964,0.220755,-1.038819,0.015661,0.103199,1.218766,3.358871,4.365891
148,-0.991229,0.154506,0.205263,-1.025166,0.008432,0.123276,1.407564,3.295839,4.239976
149,-0.979636,0.161806,0.231082,-1.034803,0.005219,0.118458,1.470596,3.484786,4.177094
150,-0.979636,0.161806,0.231082,-1.034803,0.002008,0.109623,1.407564,3.358871,4.365891
151,-0.977317,0.154506,0.231082,-1.038016,0.016463,0.122474,1.407564,3.862381,3.925264
152,-0.979636,0.154506,0.223336,-1.045243,0.010841,0.106412,1.596361,3.295839,3.988296
153,-0.986592,0.144774,0.225918,-1.033999,0.011645,0.139338,1.092851,3.673583,3.988296
154,-0.986592,0.147207,0.197517,-1.033999,0.010841,0.12167,1.596361,3.673583,3.862381
155,-0.974998,0.152073,0.236246,-1.028379,0.01807,0.115245,1.218766,3.547668,4.051179
156,-0.991229,0.156939,0.21559,-1.038016,0.015661,0.11123,1.029968,3.547668,4.428923
157,-0.991229,0.156939,0.21559,-1.03159,0.003614,0.114443,1.659393,3.232956,4.177094
158,-0.986592,0.135041,0.220755,-1.038016,0.003614,0.128096,1.785308,3.610551,4.365891
159,-0.993548,0.14964,0.243992,-1.03159,0.01807,0.125685,1.092851,3.988296,3.988296
160,-0.986592,0.154506,0.238828,-1.029181,0.008432,0.135323,1.092851,3.358871,4.114211
161,-0.986592,0.14964,0.231082,-1.045243,-0.001205,0.116049,1.596361,3.547668,4.239976
162,-0.984273,0.144774,0.202681,-1.02115,0.005219,0.112032,1.533478,3.421754,4.428923
163,-0.984273,0.144774,0.202681,-1.03159,0.010841,0.098381,1.470596,3.547668,4.051179
164,-0.977317,0.144774,0.243992,-1.038016,0.013252,0.114443,1.281649,3.547668,4.051179
165,-0.984273,0.152073,0.225918,-1.034803,0.009234,0.102396,1.407564,3.547668,4.177094
166,-0.986592,0.144774,0.225918,-1.03641,0.01807,0.122474,1.281649,3.610551,4.239976
167,-0.979636,0.154506,0.207845,-1.034803,0.006826,0.128096,1.407564,3.547668,4.051179
168,-0.970361,0.144774,0.218172,-1.038819,0.011645,0.1297,1.533478,2.918243,4.114211
169,-0.984273,0.142341,0.218172,-1.032394,0.010841,0.124883,1.029968,3.673583,4.114211
170,-0.984273,0.142341,0.218172,-1.038016,0.020479,0.119261,1.407564,3.484786,4.365891
171,-0.974998,0.142341,0.236246,-1.026772,0.004417,0.123276,1.659393,3.610551,3.988296
172,-0.981954,0.152073,0.213009,-1.041228,0.015661,0.115245,1.092851,3.170073,3.988296
173,-0.977317,0.147207,0.24141,-1.038016,0.013252,0.087137,1.344681,3.862381,4.617721
174,-0.979636,0.154506,0.207845,-1.034803,0.019676,0.098381,1.533478,3.295839,4.239976
175,-0.993548,0.154506,0.233664,-1.041228,0.017267,0.123276,1.470596,3.421754,3.988296
176,-0.993548,0.154506,0.233664,-1.033999,0.00763,0.11123,1.092851,3.610551,3.799498
177,-0.986592,0.14964,0.24141,-1.025166,0.00281,0.107214,1.281649,3.421754,4.114211
178,-0.995866,0.156939,0.233664,-1.028379,0.018872,0.119261,1.281649,3.170073,3.988296
179,-0.995866,0.159373,0.269811,-1.032394,0.01807,0.12167,1.155883,3.736466,4.365891
180,-0.979636,0.154506,0.249155,-1.038819,0.005219,0.116049,1.281649,3.736466,4.365891
181,-0.986592,0.159373,0.231082,-1.023559,0.006826,0.112032,0.904053,3.673583,4.428923
182,-0.991229,0.159373,0.2285,-1.029984,0.006826,0.11123,1.155883,3.547668,4.428923
183,-0.991229,0.159373,0.2285,-1.032394,0.010841,0.106412,1.533478,3.547668,4.303008
184,-0.991229,0.159373,0.225918,-1.04685,0.017267,0.115245,1.344681,3.484786,4.365891
185,-0.986592,0.154506,0.218172,-1.033999,0.013252,0.12167,1.533478,3.547668,4.680604
186,-0.986592,0.159373,0.238828,-1.039621,0.009234,0.095168,1.155883,3.421754,4.491806
187,-0.991229,0.156939,0.233664,-1.029984,0.018872,0.154598,1.218766,3.547668,4.051179
188,-0.970361,0.147207,0.225918,-1.03641,0.015661,0.125685,1.092851,3.736466,3.862381
189,-0.970361,0.147207,0.225918,-1.037212,0.001204,0.138536,1.218766,3.484786,4.491806
190,-0.991229,0.14964,0.21559,-1.033999,0.010841,0.120867,1.596361,3.610551,3.988296
191,-0.984273,0.144774,0.2285,-1.03641,0.027707,0.12167,0.904053,3.232956,4.177094
192,-0.981954,0.14964,0.200099,-1.035606,0.016463,0.124883,1.407564,3.862381,4.869551
193,-0.984273,0.147207,0.243992,-1.03159,0.015661,0.115245,1.533478,3.547668,4.428923
194,-0.98891,0.152073,0.2285,-1.041228,0.011645,0.112032,1.596361,3.358871,4.051179
195,-0.984273,0.147207,0.213009,-1.025968,0.014856,0.144158,1.281649,3.358871,4.806519
196,-0.984273,0.147207,0.213009,-1.035606,0.013252,0.091955,1.092851,3.673583,4.428923
197,-0.981954,0.159373,0.21559,-1.042032,0.017267,0.110427,1.344681,3.799498,4.617721
198,-0.984273,0.144774,0.24141,-1.03159,0.012448,0.093561,1.407564,3.295839,3.862381
199,-0.974998,0.154506,0.231082,-1.033999,-0.004417,0.133716,1.344681,3.736466,4.491806
200,-0.981954,0.144774,0.233664,-1.029181,-0.006023,0.097577,1.659393,3.673583,4.554689
201,-0.986592,0.154506,0.21559,-1.035606,0.011645,0.108017,1.344681,3.421754,4.051179
202,-0.986592,0.154506,0.21559,-1.046047,0.013252,0.104001,1.659393,3.484786,4.051179
203,-0.981954,0.147207,0.207845,-1.035606,0.009234,0.115245,1.344681,3.547668,4.554689
204,-0.977317,0.144774,0.2285,-1.029984,0.010841,0.112032,1.281649,3.421754,4.303008
205,-0.984273,0.147207,0.223336,-1.028379,0.000401,0.127292,1.407564,3.358871,4.617721
206,-0.981954,0.14964,0.213009,-1.025166,-0.000401,0.124883,1.344681,3.421754,4.428923
207,-0.993548,0.137474,0.243992,-1.025968,0.009234,0.122474,1.029968,3.547668,4.177094
208,-0.995866,0.144774,0.218172,-1.030788,0.006826,0.122474,1.344681,3.673583,3.862381
209,-0.995866,0.144774,0.218172,-1.038819,0.015661,0.092759,1.659393,3.358871,4.680604
210,-0.991229,0.144774,0.194935,-1.037212,0.005219,0.107214,1.407564,3.358871,4.303008
211,-0.991229,0.152073,0.202681,-1.025166,0.010841,0.116852,1.281649,3.484786,3.925264
212,-0.98891,0.152073,0.21559,-1.038819,0.009234,0.120065,1.533478,3.358871,4.554689
213,-0.991229,0.14964,0.179444,-1.033197,0.012448,0.120065,1.533478,3.170073,4.114211
214,-0.98891,0.14964,0.213009,-1.029984,0.008432,0.118458,1.533478,3.358871,4.114211
215,-0.974998,0.152073,0.200099,-1.032394,0.004417,0.128096,1.344681,3.799498,3.925264
216,-0.974998,0.152073,0.200099,-1.025166,0.010039,0.119261,1.029968,3.295839,3.988296
217,-0.991229,0.154506,0.218172,-1.033999,0.009234,0.116852,1.344681,3.547668,4.177094
218,-0.984273,0.14964,0.231082,-1.029181,0.010841,0.120065,1.344681,3.799498,4.051179
219,-0.986592,0.156939,0.197517,-1.022757,0.010039,0.112032,1.407564,3.547668,3.736466
220,-0.977317,0.159373,0.225918,-1.038016,0.011645,0.12167,1.596361,3.421754,3.925264
221,-0.984273,0.152073,0.21559,-1.029181,0.015661,0.120065,1.722276,3.170073,3.925264
222,-0.984273,0.152073,0.21559,-1.037212,0.008432,0.144158,1.659393,3.736466,4.239976
223,-0.981954,0.159373,0.210427,-1.037212,0.00763,0.102396,1.344681,3.610551,4.114211
224,-0.977317,0.142341,0.205263,-1.025968,0.010841,0.108821,1.722276,3.170073,4.114211
225,-0.991229,0.161806,0.238828,-1.033197,0.00281,0.125685,1.974106,3.610551,3.988296
226,-0.986592,0.147207,0.210427,-1.038016,0.017267,0.096774,1.281649,3.862381,4.303008
227,-0.995866,0.156939,0.210427,-1.032394,0.017267,0.116852,1.407564,3.736466,3.862381
228,-0.991229,0.144774,0.223336,-1.03641,0.012448,0.118458,1.596361,3.673583,4.680604
229,-0.991229,0.144774,0.223336,-1.03159,0.005219,0.114443,1.407564,3.484786,4.239976
230,-0.981954,0.156939,0.207845,-1.037212,0.009234,0.11123,1.344681,3.295839,4.177094
231,-0.986592,0.156939,0.200099,-1.027575,0.00763,0.102396,1.281649,3.673583,4.114211
232,-0.981954,0.14964,0.213009,-1.033197,0.013252,0.122474,1.533478,3.295839,4.177094
233,-0.981954,0.14964,0.218172,-1.032394,0.006826,0.10079,1.218766,3.673583,4.177094
234,-0.977317,0.152073,0.189771,-1.040425,0.009234,0.123276,1.533478,3.421754,4.239976
235,-0.977317,0.152073,0.189771,-1.029181,0.010039,0.128898,1.281649,3.484786,4.554689
236,-0.991229,0.152073,0.197517,-1.03641,0.00763,0.120065,0.904053,3.484786,4.491806
237,-0.984273,0.152073,0.220755,-1.03159,0.005219,0.102396,1.470596,3.295839,3.862381
238,-0.986592,0.169105,0.207845,-1.035606,0.014856,0.091955,1.533478,3.358871,4.365891
239,-0.979636,0.161806,0.197517,-1.040425,0.006023,0.114443,1.407564,3.358871,4.617721
240,-0.981954,0.14964,0.225918,-1.035606,-0.002008,0.107214,1.344681,3.610551,4.491806
241,-0.981954,0.14964,0.21559,-1.033197,0.009234,0.1297,1.281649,3.358871,4.177094
242,-0.981954,0.14964,0.21559,-1.042834,0.013252,0.133716,1.344681,3.421754,4.491806
243,-0.97268,0.154506,0.202681,-1.029984,-0.001205,0.118458,1.470596,2.981126,4.680604
244,-0.986592,0.144774,0.225918,-1.03641,0.015661,0.117654,1.722276,3.799498,4.239976
245,-0.979636,0.152073,0.225918,-1.029181,0.002008,0.108821,1.407564,3.484786,4.554689
246,-0.984273,0.152073,0.218172,-1.035606,0.003614,0.127292,1.533478,3.673583,4.114211
247,-0.986592,0.156939,0.218172,-1.033999,0.004417,0.112032,1.407564,2.918243,4.114211
248,-0.986592,0.156939,0.218172,-1.023559,0.015661,0.113639,1.155883,3.421754,4.365891
249,-0.986592,0.154506,0.233664,-1.032394,0.014054,0.095168,1.029968,3.232956,4.303008
250,-0.98891,0.14964,0.194935,-1.026772,-0.000401,0.119261,1.281649,3.610551,4.680604
251,-0.981954,0.154506,0.202681,-1.030788,0.004417,0.118458,0.904053,3.421754,4.239976
252,-0.981954,0.156939,0.220755,-1.037212,0.017267,0.112032,1.029968,3.736466,4.554689
253,-0.984273,0.144774,0.231082,-1.042834,0.010039,0.122474,1.596361,3.610551,4.239976
254,-0.979636,0.159373,0.200099,-1.017135,0.014856,0.12408,1.533478,3.484786,4.303008
255,-0.979636,0.159373,0.200099,-1.038819,0.01807,0.110427,1.092851,3.232956,3.925264
256,-0.995866,0.159373,0.200099,-1.027575,0.003614,0.114443,1.029968,3.673583,4.177094
257,-0.993548,0.156939,0.202681,-1.025166,0.002008,0.126489,1.281649,3.044158,4.239976
258,-0.986592,0.14964,0.24141,-1.024363,0.001204,0.126489,1.533478,3.484786,4.114211
259,-0.995866,0.159373,0.233664,-1.028379,0.000401,0.093561,0.841171,3.484786,4.177094
260,-0.98891,0.154506,0.210427,-1.030788,0.017267,0.133716,1.281649,3.673583,4.239976
261,-0.984273,0.147207,0.210427,-1.029181,0.012448,0.095168,1.470596,3.295839,4.177094
262,-0.984273,0.147207,0.210427,-1.032394,0.016463,0.128096,1.470596,3.484786,4.177094
263,-0.98891,0.156939,0.225918,-1.033197,0.012448,0.109623,1.533478,3.673583,4.365891
264,-0.98891,0.152073,0.213009,-1.038819,0.014054,0.12167,1.344681,3.421754,4.051179
265,-0.991229,0.156939,0.205263,-1.040425,0.015661,0.113639,1.533478,3.295839,4.303008
266,-0.984273,0.156939,0.220755,-1.033197,0.012448,0.104805,1.533478,3.673583,4.365891
267,-0.984273,0.156939,0.218172,-1.03159,0.022085,0.112836,1.218766,3.421754,4.051179
268,-0.984273,0.156939,0.218172,-1.041228,0.014856,0.112836,0.904053,3.170073,4.114211
269,-0.979636,0.154506,0.213009,-1.028379,0.012448,0.104001,1.218766,3.484786,4.806519
270,-0.981954,0.156939,0.18719,-1.029181,0.012448,0.128898,1.155883,3.421754,4.365891
271,-0.986592,0.152073,0.184607,-1.034803,0.011645,0.122474,1.407564,3.107041,4.177094
272,-0.993548,0.14964,0.213009,-1.03159,0.010841,0.105608,1.344681,3.358871,4.177094
273,-0.984273,0.142341,0.197517,-1.035606,0.010841,0.136929,0.966936,3.107041,4.303008
274,-0.984273,0.154506,0.210427,-1.025166,0.001204,0.092759,1.407564,3.107041,4.303008
275,-0.984273,0.154506,0.210427,-1.034803,0.00763,0.103199,1.533478,3.295839,4.428923
276,-0.991229,0.152073,0.202681,-1.033197,0.022085,0.142551,1.470596,3.610551,4.428923
277,-0.984273,0.14964,0.210427,-1.032394,0.013252,0.102396,0.904053,3.170073,4.491806
278,-0.981954,0.164239,0.210427,-1.043636,0.01807,0.110427,1.407564,3.610551,4.114211
279,-0.984273,0.154506,0.200099,-1.034803,0.012448,0.11123,1.218766,3.295839,4.365891
280,-0.993548,0.152073,0.220755,-1.022757,0.008432,0.124883,1.407564,3.421754,4.554689
281,-0.993548,0.152073,0.220755,-1.028379,0.017267,0.088743,1.407564,3.295839,4.428923
282,-0.98891,0.14964,0.225918,-1.047652,0.00763,0.117654,1.407564,3.547668,4.491806
283,-0.984273,0.14964,0.194935,-1.033999,0.014856,0.108821,1.281649,3.484786,4.051179
284,-0.991229,0.152073,0.223336,-1.035606,0.006826,0.12167,1.470596,3.421754,3.862381
285,-0.995866,0.147207,0.231082,-1.03159,0.006826,0.113639,1.407564,3.484786,4.239976
286,-0.991229,0.152073,0.205263,-1.030788,0.003614,0.137733,1.470596,3.358871,4.365891
287,-0.986592,0.14964,0.2285,-1.025968,0.003614,0.123276,1.659393,3.421754,4.177094
288,-0.986592,0.14964,0.2285,-1.033999,0.010039,0.088743,1.344681,3.232956,4.428923
289,-0.995866,0.142341,0.207845,-1.025166,0.00763,0.131307,0.904053,3.421754,4.239976
290,-0.998185,0.14964,0.205263,-1.033999,0.001204,0.108821,1.281649,3.107041,4.177094
291,-0.993548,0.152073,0.2285,-1.032394,0.000401,0.105608,1.533478,3.484786,4.491806
292,-0.977317,0.144774,0.2285,-1.026772,0.009234,0.101592,1.344681,3.799498,4.806519
293,-0.979636,0.135041,0.2285,-1.035606,0.010841,0.092759,1.533478,3.610551,4.114211
294,-0.979636,0.135041,0.2285,-1.023559,0.006023,0.120867,1.407564,3.421754,4.051179
295,-0.979636,0.120442,0.233664,-1.029984,0.008432,0.119261,1.533478,3.232956,4.617721
296,-0.993548,0.137474,0.213009,-1.033197,0.013252,0.133716,1.092851,3.736466,3.925264
297,-0.981954,0.147207,0.225918,-1.029181,0.016463,0.104001,1.218766,3.610551,4.680604
298,-0.986592,0.14964,0.200099,-1.048456,0.018872,0.112032,1.659393,3.421754,4.051179
299,-0.986592,0.144774,0.2285,-1.03159,0.009234,0.088743,1.722276,3.358871,4.491806
300,-0.979636,0.142341,0.218172,-1.026772,-0.000401,0.122474,1.533478,3.862381,4.365891
301,-0.979636,0.142341,0.218172,-1.029984,0.006023,0.099183,1.092851,3.736466,4.554689
302,-0.991229,0.14964,0.259483,-1.021953,0.014054,0.09597,1.470596,2.918243,3.862381
303,-0.981954,0.156939,0.220755,-1.023559,0.009234,0.142551,1.407564,3.610551,4.177094
304,-0.974998,0.144774,0.210427,-1.043636,0.01807,0.108017,1.281649,3.421754,4.114211
305,-0.981954,0.14964,0.254319,-1.03159,0.00763,0.126489,1.344681,3.736466,4.303008
306,-0.986592,0.14964,0.210427,-1.03641,-0.003614,0.144158,1.344681,3.170073,4.365891
307,-0.986592,0.14964,0.210427,-1.043636,0.008432,0.116852,0.904053,3.170073,4.365891
308,-0.981954,0.147207,0.233664,-1.029181,-0.000401,0.113639,1.407564,3.610551,4.365891
309,-0.977317,0.147207,0.259483,-1.037212,0.008432,0.104805,1.218766,3.421754,4.051179
310,-0.974998,0.152073,0.233664,-1.034803,0.006023,0.120065,1.470596,3.358871,4.239976
311,-0.984273,0.156939,0.233664,-1.029181,0.015661,0.120867,1.029968,3.610551,3.988296
312,-0.965724,0.147207,0.251737,-1.027575,0.014054,0.131307,1.218766,3.484786,4.554689
313,-0.97268,0.147207,0.200099,-1.026772,0.00763,0.120867,1.407564,3.610551,4.365891
314,-0.97268,0.147207,0.200099,-1.040425,0.011645,0.105608,1.785308,3.610551,4.743636
315,-0.97268,0.154506,0.2285,-1.037212,0.003614,0.120065,1.344681,3.358871,4.177094
316,-0.970361,0.156939,0.231082,-1.034803,0.015661,0.102396,1.218766,3.421754,4.239976
317,-0.981954,0.152073,0.213009,-1.033197,0.006023,0.112836,1.659393,3.673583,4.177094
318,-0.974998,0.166672,0.21559,-1.030788,0.014054,0.135323,1.533478,3.610551,4.239976
319,-0.977317,0.152073,0.202681,-1.025968,0.006023,0.112032,1.092851,3.044158,4.428923
320,-0.970361,0.156939,0.21559,-1.033197,0.017267,0.108821,1.470596,3.547668,3.925264
321,-0.970361,0.156939,0.21559,-1.033197,0.014856,0.130505,1.218766,3.295839,4.428923
322,-0.981954,0.154506,0.213009,-1.03641,0.014054,0.117654,1.407564,3.421754,4.177094
323,-0.991229,0.156939,0.231082,-1.03159,0.013252,0.087137,1.218766,3.358871,3.988296
324,-0.97268,0.14964,0.223336,-1.024363,0.019676,0.120867,1.533478,3.673583,4.428923
325,-0.979636,0.159373,0.218172,-1.020348,0.006826,0.109623,1.218766,3.170073,4.428923
326,-0.965724,0.14964,0.197517,-1.029181,0.008432,0.104001,1.218766,3.547668,4.617721
327,-0.965724,0.14964,0.197517,-1.033999,0.012448,0.124883,1.596361,3.232956,4.051179
328,-0.97268,0.14964,0.21559,-1.03641,0.014054,0.115245,1.281649,3.295839,4.239976
329,-0.97268,0.144774,0.233664,-1.038819,0.015661,0.096774,1.470596,3.547668,4.365891
330,-0.97268,0.14964,0.189771,-1.042834,0.019676,0.104805,0.904053,3.547668,4.491806
331,-0.968042,0.139907,0.223336,-1.041228,0.017267,0.117654,1.218766,3.421754,4.806519
332,-0.97268,0.147207,0.210427,-1.03159,0.008432,0.104805,1.281649,3.547668,4.554689
333,-0.977317,0.144774,0.213009,-1.033197,0.019676,0.115245,0.966936,3.673583,4.428923
334,-0.977317,0.144774,0.213009,-1.032394,-0.002812,0.125685,1.344681,3.736466,3.925264
335,-0.97268,0.147207,0.21559,-1.03159,0.012448,0.113639,1.344681,3.736466,4.051179
336,-0.984273,0.139907,0.218172,-1.033999,0.009234,0.124883,1.029968,3.358871,4.491806
337,-0.974998,0.144774,0.21559,-1.029181,0.006826,0.1297,1.281649,3.295839,3.988296
338,-0.974998,0.159373,0.197517,-1.021953,0.016463,0.10079,1.785308,3.421754,3.925264
339,-0.979636,0.154506,0.218172,-1.023559,0.010841,0.118458,1.407564,3.421754,4.177094
340,-0.979636,0.154506,0.218172,-1.029181,0.014856,0.113639,0.841171,3.547668,4.114211
341,-0.974998,0.144774,0.200099,-1.042032,0.017267,0.11123,1.596361,3.421754,4.239976
342,-0.98891,0.152073,0.220755,-1.040425,0.006826,0.12408,1.155883,3.547668,4.177094
343,-0.984273,0.144774,0.225918,-1.032394,0.011645,0.108017,1.407564,3.107041,4.554689
344,-0.981954,0.154506,0.18719,-1.040425,0.008432,0.11123,1.344681,3.484786,4.051179
345,-0.995866,0.14964,0.223336,-1.042032,0.022085,0.107214,1.218766,3.170073,4.554689
346,-0.977317,0.154506,0.205263,-1.038016,0.018872,0.096774,1.344681,4.051179,3.925264
347,-0.977317,0.154506,0.205263,-1.035606,0.017267,0.131307,0.966936,3.107041,4.114211
348,-0.986592,0.142341,0.231082,-1.033999,0.005219,0.106412,1.407564,3.862381,3.610551
349,-0.977317,0.14964,0.220755,-1.034803,0.014054,0.108821,1.092851,3.484786,3.988296
350,-0.981954,0.154506,0.213009,-1.025166,0.008432,0.11123,1.533478,3.862381,4.491806
351,-0.979636,0.152073,0.225918,-1.038016,0.016463,0.113639,1.470596,3.421754,4.177094
352,-0.974998,0.147207,0.210427,-1.038016,0.006023,0.11123,1.407564,3.232956,4.051179
353,-0.974998,0.147207,0.210427,-1.038016,0.012448,0.12167,1.155883,3.736466,4.114211
354,-0.979636,0.147207,0.218172,-1.027575,-0.002008,0.095168,1.407564,3.295839,4.239976
355,-0.98891,0.161806,0.210427,-1.029984,0.006023,0.114443,1.344681,3.421754,4.932433
356,-0.981954,0.152073,0.218172,-1.033197,0.012448,0.1297,1.659393,3.547668,4.365891
357,-0.97268,0.142341,0.210427,-1.032394,0.019676,0.124883,1.470596,3.421754,4.177094
358,-0.984273,0.142341,0.213009,-1.029181,0.010039,0.102396,1.344681,3.547668,4.491806
359,-0.984273,0.135041,0.223336,-1.027575,0.006023,0.116049,1.407564,3.547668,3.736466
360,-0.984273,0.135041,0.223336,-1.028379,-0.000401,0.137733,1.218766,3.358871,4.177094
361,-0.981954,0.14964,0.210427,-1.030788,0.001204,0.10079,1.218766,3.484786,3.925264
362,-0.977317,0.154506,0.2285,-1.027575,0.004417,0.108017,1.407564,3.673583,3.862381
363,-0.981954,0.159373,0.233664,-1.040425,0.014856,0.125685,1.533478,3.484786,3.673583
364,-0.974998,0.159373,0.220755,-1.025968,0.008432,0.117654,1.092851,3.484786,4.428923
365,-0.984273,0.14964,0.176862,-1.033197,0.008432,0.115245,1.533478,3.421754,4.869551
366,-0.984273,0.14964,0.176862,-1.042834,0.019676,0.12167,1.281649,3.295839,4.428923
367,-0.977317,0.164239,0.218172,-1.03159,-0.000401,0.133716,1.470596,3.421754,4.617721
368,-0.981954,0.152073,0.236246,-1.03159,0.016463,0.107214,1.596361,3.673583,4.428923
369,-0.979636,0.156939,0.213009,-1.042032,0.006826,0.107214,1.155883,3.295839,4.051179
370,-0.977317,0.152073,0.264647,-1.030788,0.009234,0.123276,1.785308,3.610551,4.114211
371,-0.968042,0.161806,0.264647,-1.035606,0.006023,0.097577,1.281649,3.421754,4.303008
372,-0.981954,0.154506,0.233664,-1.042032,0.016463,0.114443,1.407564,3.610551,4.239976
373,-0.981954,0.154506,0.233664,-1.018741,0.01807,0.112032,1.407564,3.295839,4.365891
374,-0.979636,0.14964,0.218172,-1.026772,0.015661,0.105608,1.218766,3.044158,4.743636
375,-0.981954,0.156939,0.233664,-1.035606,0.011645,0.106412,1.470596,3.421754,4.869551
376,-0.981954,0.156939,0.21559,-1.041228,0.013252,0.112032,1.974106,3.421754,4.303008
377,-0.986592,0.154506,0.236246,-1.041228,0.010841,0.131307,1.344681,3.610551,4.617721
378,-0.986592,0.147207,0.223336,-1.033197,0.010039,0.104805,1.470596,3.358871,4.303008
379,-0.986592,0.164239,0.225918,-1.021953,0.009234,0.131307,1.533478,3.610551,3.988296
380,-0.986592,0.164239,0.225918,-1.027575,0.006826,0.120867,1.407564,3.295839,4.365891
381,-0.991229,0.156939,0.213009,-1.029984,0.017267,0.139338,1.281649,3.547668,3.925264
382,-0.991229,0.144774,0.218172,-1.033999,0.003614,0.107214,0.904053,3.358871,4.428923
383,-0.984273,0.152073,0.218172,-1.025968,0.005219,0.110427,1.281649,3.610551,4.428923
384,-0.993548,0.156939,0.218172,-1.032394,0.00763,0.118458,1.470596,3.484786,4.680604
385,-0.984273,0.147207,0.2285,-1.025968,0.020479,0.09597,1.281649,3.358871,4.051179
386,-0.984273,0.147207,0.2285,-1.03641,0.014054,0.12408,1.407564,3.673583,3.862381
387,-0.984273,0.154506,0.218172,-1.030788,0.004417,0.127292,1.533478,3.358871,4.051179
388,-0.986592,0.14964,0.197517,-1.038016,0.006023,0.125685,1.092851,3.736466,3.925264
389,-0.986592,0.159373,0.202681,-1.025166,0.00281,0.118458,1.407564,3.232956,4.303008
390,-0.977317,0.156939,0.225918,-1.038819,0.013252,0.099183,1.218766,3.358871,4.303008
391,-0.981954,0.144774,0.223336,-1.030788,0.005219,0.117654,1.407564,3.421754,4.554689
392,-0.986592,0.156939,0.21559,-1.020348,0.009234,0.108017,1.155883,3.547668,4.177094
393,-0.986592,0.156939,0.21559,-1.033999,0.017267,0.120065,1.218766,3.673583,4.177094
394,-0.986592,0.159373,0.205263,-1.033197,0.015661,0.113639,1.911074,3.610551,4.365891
395,-0.979636,0.152073,0.238828,-1.045243,0.010841,0.122474,1.344681,3.358871,4.491806
396,-0.979636,0.14964,0.225918,-1.027575,0.012448,0.103199,1.533478,3.547668,4.680604
397,-0.974998,0.154506,0.210427,-1.03159,0.017267,0.131307,1.407564,3.547668,4.554689
398,-0.97268,0.144774,0.225918,-1.025166,0.011645,0.117654,1.281649,3.799498,4.365891
399,-0.97268,0.144774,0.225918,-1.025166,0.014054,0.116852,1.155883,3.358871,4.365891
400,-0.981954,0.152073,0.233664,-1.039621,0.017267,0.091955,1.407564,3.232956,4.177094
401,-0.981954,0.14964,0.223336,-1.029984,0.011645,0.135323,1.281649,3.421754,4.428923
402,-0.986592,0.154506,0.231082,-1.03641,0.010841,0.107214,1.281649,3.107041,4.617721
403,-0.991229,0.14964,0.2285,-1.026772,0.010841,0.103199,1.281649,3.421754,4.554689
404,-0.986592,0.14964,0.238828,-1.039621,0.015661,0.137733,1.659393,3.358871,4.554689
405,-0.993548,0.159373,0.223336,-1.025166,-0.001205,0.118458,1.659393,3.610551,4.303008
406,-0.993548,0.159373,0.223336,-1.027575,0.004417,0.118458,1.218766,3.295839,4.491806
407,-0.993548,0.156939,0.249155,-1.035606,0.018872,0.091955,1.407564,3.232956,4.177094
408,-0.98891,0.139907,0.2285,-1.039621,0.006826,0.123276,1.407564,3.232956,4.617721
409,-0.986592,0.147207,0.225918,-1.032394,0.013252,0.106412,1.344681,3.547668,3.988296
410,-0.979636,0.147207,0.21559,-1.027575,0.003614,0.108821,1.281649,3.547668,4.428923
411,-0.991229,0.152073,0.223336,-1.035606,0.021283,0.128096,1.281649,3.736466,3.925264
412,-0.991229,0.152073,0.223336,-1.033197,0.014054,0.104001,0.966936,3.673583,4.114211
413,-0.970361,0.144774,0.213009,-1.044441,0.011645,0.105608,1.344681,3.421754,4.239976
414,-0.98891,0.135041,0.225918,-1.035606,0.010841,0.117654,1.785308,3.799498,4.303008
415,-0.986592,0.142341,0.231082,-1.029181,0.00763,0.125685,0.966936,3.295839,4.365891
416,-0.979636,0.147207,0.24141,-1.030788,0.012448,0.126489,1.218766,3.358871,4.554689
417,-0.977317,0.152073,0.202681,-1.03641,0.022085,0.139338,1.281649,3.107041,4.428923
418,-0.97268,0.147207,0.233664,-1.045243,0.019676,0.116049,1.344681,3.547668,4.743636
419,-0.97268,0.147207,0.233664,-1.033197,0.020479,0.125685,1.596361,3.736466,4.051179
420,-0.979636,0.156939,0.225918,-1.029984,0.00281,0.118458,1.407564,3.610551,4.303008
421,-0.986592,0.137474,0.225918,-1.03641,0.019676,0.105608,1.029968,3.799498,4.177094
422,-0.970361,0.135041,0.236246,-1.032394,0.005219,0.128096,1.281649,3.610551,4.428923
423,-0.986592,0.135041,0.218172,-1.038819,0.00763,0.093561,1.281649,3.988296,4.428923
424,-0.986592,0.142341,0.207845,-1.026772,0.008432,0.099183,1.344681,3.484786,4.365891
425,-0.986592,0.142341,0.207845,-1.03159,0.016463,0.126489,1.596361,3.547668,4.177094
426,-0.979636,0.139907,0.2285,-1.032394,0.009234,0.11123,1.281649,3.170073,4.365891
427,-0.98891,0.142341,0.236246,-1.025166,0.014054,0.126489,1.344681,3.484786,4.554689
428,-0.984273,0.135041,0.210427,-1.038016,0.010841,0.143353,1.344681,3.295839,4.239976
429,-0.977317,0.135041,0.223336,-1.033197,0.012448,0.099986,0.904053,3.862381,4.428923
430,-0.986592,0.142341,0.233664,-1.023559,0.012448,0.112032,1.407564,3.421754,4.303008
431,-0.991229,0.147207,0.202681,-1.03641,-0.001205,0.12408,1.407564,3.358871,4.239976
432,-0.991229,0.147207,0.202681,-1.025166,-0.006023,0.130505,1.407564,3.610551,4.428923
433,-0.984273,0.14964,0.225918,-1.038016,0.010841,0.123276,1.533478,3.862381,3.925264
434,-0.986592,0.139907,0.223336,-1.038016,0.011645,0.099183,1.092851,3.484786,4.428923
435,-0.991229,0.14964,0.236246,-1.028379,0.021283,0.123276,1.281649,3.295839,4.617721
436,-0.979636,0.135041,0.218172,-1.033999,0.008432,0.104805,1.155883,3.736466,4.554689
437,-0.993548,0.147207,0.21559,-1.043636,0.013252,0.11123,1.533478,3.736466,4.365891
438,-0.991229,0.139907,0.21559,-1.033197,0.021283,0.099183,1.407564,3.484786,4.177094
439,-0.991229,0.139907,0.21559,-1.032394,0.021283,0.107214,1.155883,3.358871,4.303008
440,-0.98891,0.130175,0.223336,-1.029181,0.00763,0.124883,1.281649,3.610551,4.428923
441,-0.981954,0.137474,0.225918,-1.026772,0.012448,0.108821,1.281649,3.925264,4.114211
442,-0.986592,0.139907,0.223336,-1.030788,0.009234,0.123276,1.470596,3.295839,3.799498
443,-0.984273,0.132608,0.231082,-1.033999,0.006023,0.104001,1.281649,3.358871,4.177094
444,-0.970361,0.139907,0.21559,-1.035606,0.015661,0.119261,1.470596,3.736466,4.051179
445,-0.970361,0.139907,0.21559,-1.040425,0.021283,0.106412,1.596361,3.421754,4.239976
446,-0.981954,0.135041,0.254319,-1.020348,0.005219,0.101592,1.281649,3.358871,4.743636
447,-0.986592,0.144774,0.194935,-1.033999,0.004417,0.115245,1.092851,3.295839,4.239976
448,-0.979636,0.147207,0.225918,-1.029181,0.017267,0.126489,1.407564,3.547668,3.925264
449,-0.979636,0.144774,0.200099,-1.040425,0.003614,0.136929,1.533478,3.421754,4.177094
450,-0.974998,0.139907,0.2285,-1.03641,0.006826,0.124883,1.596361,3.421754,4.365891
451,-0.98891,0.139907,0.220755,-1.039621,0.014856,0.119261,1.155883,3.421754,4.051179
452,-0.98891,0.139907,0.220755,-1.033999,0.012448,0.088743,1.659393,3.673583,4.051179
453,-0.984273,0.142341,0.21559,-1.033999,0.010841,0.099183,1.344681,3.358871,3.988296
454,-0.979636,0.152073,0.220755,-1.026772,0.011645,0.094365,1.281649,3.295839,4.177094
455,-0.993548,0.14964,0.176862,-1.038819,0.016463,0.112032,1.155883,3.421754,4.177094
456,-0.986592,0.156939,0.182025,-1.033999,0.014054,0.101592,1.533478,3.358871,4.303008
457,-0.98891,0.147207,0.202681,-1.038016,0.00763,0.081515,1.722276,3.232956,4.051179
458,-0.98891,0.147207,0.202681,-1.030788,0.010039,0.136127,1.344681,3.799498,4.428923
459,-0.979636,0.156939,0.210427,-1.035606,0.014856,0.110427,1.344681,3.421754,4.743636
460,-0.986592,0.156939,0.192353,-1.025166,0.014054,0.108017,1.344681,3.044158,4.428923
461,-0.98891,0.154506,0.218172,-1.03159,0.016463,0.120867,1.029968,3.484786,4.554689
462,-0.993548,0.154506,0.2285,-1.029984,0.022085,0.104805,1.281649,3.107041,4.177094
463,-0.974998,0.152073,0.213009,-1.035606,0.020479,0.116049,1.470596,3.862381,4.743636
464,-0.979636,0.14964,0.236246,-1.025166,0.014054,0.104805,0.966936,3.673583,4.239976
465,-0.979636,0.14964,0.236246,-1.039621,0.021283,0.11123,1.722276,3.232956,4.303008
466,-0.991229,0.14964,0.21559,-1.033197,0.009234,0.097577,1.596361,3.484786,4.114211
467,-0.979636,0.159373,0.238828,-1.029984,0.00763,0.095168,1.470596,3.736466,4.365891
468,-0.986592,0.156939,0.218172,-1.028379,-0.001205,0.102396,1.155883,3.547668,4.428923
469,-0.991229,0.147207,0.207845,-1.042032,0.015661,0.116852,1.407564,3.295839,3.862381
470,-0.98891,0.147207,0.202681,-1.038819,0.005219,0.098381,1.218766,3.736466,4.051179
471,-0.98891,0.147207,0.202681,-1.043636,0.011645,0.123276,1.344681,3.232956,4.177094
472,-0.98891,0.159373,0.207845,-1.038016,0.019676,0.118458,1.407564,3.421754,4.617721
473,-0.986592,0.154506,0.243992,-1.029181,0.018872,0.108017,1.092851,2.918243,3.925264
474,-0.98891,0.14964,0.218172,-1.035606,0.006023,0.132111,1.407564,3.484786,4.365891
475,-0.995866,0.156939,0.246574,-1.029181,0.012448,0.096774,1.281649,3.799498,4.051179
476,-0.998185,0.161806,0.236246,-1.035606,0.008432,0.112032,1.155883,3.358871,4.177094
477,-0.984273,0.156939,0.200099,-1.037212,0.021283,0.11123,1.029968,3.484786,4.365891
478,-0.984273,0.156939,0.200099,-1.032394,0.014856,0.118458,1.407564,3.610551,4.051179
479,-0.979636,0.156939,0.189771,-1.023559,0.010039,0.120867,1.596361,3.610551,4.177094
480,-0.97268,0.156939,0.238828,-1.043636,0.014856,0.116852,1.092851,3.673583,4.303008
481,-0.979636,0.152073,0.220755,-1.03641,0.015661,0.108821,1.533478,4.051179,4.554689
482,-0.98891,0.142341,0.213009,-1.034803,0.015661,0.120065,1.092851,3.673583,4.365891
483,-0.984273,0.142341,0.24141,-1.042032,0.015661,0.094365,1.659393,3.421754,4.303008
484,-0.984273,0.142341,0.24141,-1.033197,-0.002812,0.096774,1.470596,3.547668,4.051179
485,-0.981954,0.152073,0.213009,-1.029181,0.006826,0.11123,1.470596,3.484786,4.177094
486,-0.986592,0.142341,0.223336,-1.035606,0.010039,0.099986,1.218766,3.295839,3.799498
487,-0.986592,0.14964,0.2285,-1.028379,0.004417,0.11123,1.533478,3.925264,3.862381
488,-0.984273,0.14964,0.231082,-1.029984,0.00281,0.125685,1.533478,3.358871,3.862381
489,-0.995866,0.152073,0.220755,-1.043636,0.010841,0.104001,0.904053,3.295839,4.617721
490,-0.98891,0.14964,0.225918,-1.033197,0.005219,0.116049,0.904053,3.232956,4.051179
491,-0.98891,0.14964,0.225918,-1.025968,0.006826,0.112836,1.407564,3.232956,3.862381
492,-0.970361,0.154506,0.21559,-1.035606,0.015661,0.091152,1.407564,3.421754,4.869551
493,-0.977317,0.156939,0.236246,-1.022757,0.009234,0.117654,1.281649,3.673583,4.428923
494,-0.981954,0.154506,0.233664,-1.035606,0.016463,0.112032,1.218766,3.358871,4.491806
495,-0.981954,0.144774,0.218172,-1.03159,0.012448,0.12408,1.659393,3.736466,3.799498
496,-0.970361,0.154506,0.213009,-1.035606,0.009234,0.112836,1.407564,3.862381,4.177094
497,-0.97268,0.144774,0.202681,-1.037212,0.013252,0.10079,1.533478,3.044158,4.051179
498,-0.97268,0.144774,0.202681,-1.03641,0.022085,0.117654,1.344681,2.603531,4.114211
499,-0.970361,0.156939,0.2285,-1.035606,0.019676,0.092759,1.722276,3.547668,4.239976
500,-0.984273,0.147207,0.218172,-1.033197,0.020479,0.097577,1.155883,3.044158,4.303008
501,-0.970361,0.156939,0.200099,-1.033999,0.017267,0.136929,1.218766,3.232956,4.051179
502,-0.977317,0.154506,0.213009,-1.026772,0.010039,0.132111,1.407564,3.421754,4.177094
503,-0.97268,0.159373,0.210427,-1.03159,0.006023,0.114443,1.344681,3.170073,4.239976
504,-0.97268,0.159373,0.210427,-1.033197,0.005219,0.09597,1.218766,3.484786,4.239976
505,-0.984273,0.161806,0.225918,-1.037212,0.010841,0.105608,1.281649,3.107041,4.680604
506,-0.970361,0.152073,0.194935,-1.032394,0.01807,0.12167,1.218766,3.610551,4.365891
507,-0.970361,0.144774,0.213009,-1.032394,0.010039,0.102396,1.344681,3.421754,4.239976
508,-0.979636,0.152073,0.225918,-1.032394,0.010841,0.108017,1.218766,3.358871,4.051179
509,-0.974998,0.14964,0.233664,-1.033999,0.014856,0.108821,1.344681,3.107041,4.365891
510,-0.979636,0.144774,0.2285,-1.033999,0.00763,0.086333,1.533478,3.673583,4.177094
511,-0.979636,0.144774,0.2285,-1.030788,0.008432,0.098381,1.533478,3.232956,4.428923
512,-0.977317,0.144774,0.2285,-1.050865,0.00763,0.108017,1.281649,2.981126,3.988296
513,-0.984273,0.144774,0.225918,-0.926384,0.024494,0.106412,0.085831,4.743636,4.995317
514,-0.974998,0.147207,0.223336,-0.784234,0.16022,0.195556,-3.690869,12.989193,-2.180189
515,-0.974998,0.147207,0.225918,-1.340787,-0.052604,0.026101,-11.621714,5.750656,5.247146
516,-0.974998,0.142341,0.218172,-1.002679,-0.07509,0.157006,0.211596,-15.901924,-14.328212
517,-0.974998,0.142341,0.218172,-1.108688,0.192343,0.147369,3.044158,-2.809614,10.849089
518,-0.974998,0.144774,0.213009,-0.932808,-0.028511,0.124883,4.806519,13.870448,6.631911
519,-0.974998,0.152073,0.231082,-1.141616,-0.047784,0.219649,2.981126,14.562756,5.624742
520,-0.977317,0.154506,0.2285,-1.238792,-0.083926,0.128898,4.303008,5.813688,6.380081
521,-0.974998,0.159373,0.238828,-1.174544,-0.071879,0.110427,1.155883,-4.446208,-0.858307
522,-0.979636,0.152073,0.192353,-1.105477,-0.025298,0.112032,1.722276,0.211596,-0.417829
523,-0.986592,0.147207,0.225918,-1.012317,0.022085,0.132914,1.911074,6.569028,0.778139
524,-0.986592,0.147207,0.225918,-0.967342,0.043769,0.082317,1.470596,5.624742,3.610551
525,-0.986592,0.14964,0.200099,-0.959312,0.057422,0.092759,0.841171,1.029968,6.694794
526,-0.97268,0.144774,0.246574,-0.957705,0.044571,0.115245,0.841171,1.974106,6.946623
527,-0.979636,0.152073,0.205263,-1.003482,0.022887,0.116852,1.029968,5.184263,6.128401
528,-0.970361,0.154506,0.24141,-1.039621,0.001204,0.112032,1.029968,5.058348,5.310029
529,-0.984273,0.154506,0.238828,-1.063716,0.004417,0.120867,1.281649,2.414733,4.680604
530,-0.984273,0.154506,0.238828,-1.07014,-0.011645,0.126489,1.029968,2.981126,4.554689
531,-0.977317,0.147207,0.213009,-1.069336,-0.009236,0.12408,1.407564,4.554689,3.170073
532,-0.979636,0.142341,0.225918,-1.048456,0.006023,0.102396,1.281649,4.051179,3.107041
533,-0.977317,0.154506,0.21559,-1.041228,0.00281,0.108821,1.281649,2.288818,3.484786
534,-0.974998,0.154506,0.249155,-1.026772,0.017267,0.107214,1.344681,3.358871,3.736466
535,-0.98891,0.14964,0.220755,-1.005891,0.006826,0.107214,1.281649,4.051179,4.051179
536,-0.974998,0.154506,0.218172,-1.011513,0.018872,0.119261,1.092851,3.484786,3.988296
537,-0.974998,0.154506,0.218172,-0.998664,-0.006827,0.116852,0.904053,2.855361,4.932433
538,-0.979636,0.152073,0.225918,-1.025166,0.024494,0.095168,1.155883,3.358871,4.869551
539,-0.968042,0.161806,0.218172,-1.018741,0.010039,0.109623,1.407564,4.177094,5.310029
540,-0.968042,0.156939,0.220755,-1.030788,0.011645,0.082317,1.344681,3.610551,4.806519
541,-0.965724,0.156939,0.236246,-1.042032,0.013252,0.106412,1.092851,2.918243,4.554689
542,-0.965724,0.14964,0.197517,-1.034803,-0.001205,0.128898,1.092851,3.673583,4.617721
543,-0.965724,0.14964,0.197517,-1.035606,0.000401,0.115245,1.092851,3.547668,4.114211
544,-0.986592,0.159373,0.202681,-1.034803,0.014856,0.126489,1.407564,2.855361,3.799498
545,-0.98891,0.156939,0.233664,-1.040425,0.014856,0.114443,1.281649,3.107041,4.428923
546,-0.984273,0.147207,0.249155,-1.046047,0.010841,0.104805,1.533478,3.421754,4.239976
547,-0.986592,0.152073,0.233664,-1.026772,0.000401,0.109623,1.344681,3.358871,3.988296
548,-0.981954,0.147207,0.223336,-1.046047,0.027707,0.112836,1.218766,3.170073,4.239976
549,-0.984273,0.159373,0.246574,-1.033197,0.018872,0.09597,1.407564,3.547668,4.491806
550,-0.984273,0.159373,0.246574,-1.027575,0.012448,0.13452,1.092851,3.610551,4.806519
551,-0.979636,0.152073,0.2285,-1.035606,0.024494,0.11123,1.470596,3.484786,4.114211
552,-0.97268,0.156939,0.2285,-1.032394,0.021283,0.114443,1.218766,3.736466,4.303008
553,-0.974998,0.142341,0.210427,-1.03641,0.017267,0.112836,1.029968,3.421754,4.239976
554,-0.984273,0.156939,0.220755,-1.029181,0.017267,0.126489,1.470596,3.673583,4.303008
555,-0.974998,0.154506,0.24141,-1.044441,0.00281,0.107214,1.281649,3.170073,4.428923
556,-0.97268,0.14964,0.2285,-1.040425,0.008432,0.112836,1.344681,3.170073,4.743636
557,-0.97268,0.14964,0.2285,-1.029984,0.003614,0.123276,1.281649,3.421754,3.799498
558,-0.970361,0.159373,0.238828,-1.034803,0.009234,0.122474,1.407564,4.177094,4.177094
559,-0.97268,0.152073,0.21559,-1.033197,0.013252,0.108821,0.904053,3.107041,4.303008
560,-0.984273,0.156939,0.233664,-1.038016,0.015661,0.093561,1.407564,3.484786,3.988296
561,-0.986592,0.154506,0.238828,-1.029984,0.008432,0.154598,1.596361,3.673583,4.303008
562,-0.979636,0.154506,0.225918,-1.038819,0.01807,0.104805,1.344681,3.547668,4.365891
563,-0.979636,0.154506,0.225918,-1.030788,0.01807,0.09035,1.092851,3.232956,4.491806
564,-0.977317,0.14964,0.205263,-1.040425,0.006023,0.108821,1.281649,3.358871,4.365891
565,-0.977317,0.14964,0.223336,-1.026772,0.010841,0.106412,0.715256,3.673583,4.239976
566,-0.977317,0.147207,0.210427,-1.033999,0.021283,0.110427,1.155883,3.358871,4.177094
567,-0.97268,0.14964,0.192353,-1.033999,0.006023,0.119261,1.596361,3.610551,4.177094
568,-0.970361,0.147207,0.220755,-1.033999,0.008432,0.132914,1.029968,3.421754,4.743636
569,-0.97268,0.139907,0.213009,-1.03641,0.014054,0.146567,1.281649,3.295839,4.617721
570,-0.97268,0.139907,0.213009,-1.03159,0.009234,0.126489,1.407564,3.799498,3.988296
571,-0.981954,0.159373,0.225918,-1.006695,-0.001205,0.116852,0.589341,2.729446,5.058348
572,-0.98891,0.142341,0.223336,-1.040425,0.030918,0.116049,1.281649,2.666414,1.281649
573,-0.991229,0.152073,0.233664,-1.03159,0.018872,0.105608,1.407564,2.729446,5.561858
574,-0.991229,0.154506,0.249155,-1.012317,0.015661,0.117654,1.533478,4.365891,4.617721
575,-0.995866,0.147207,0.2285,-1.013922,0.000401,0.093561,1.785308,3.421754,4.806519
576,-0.995866,0.147207,0.2285,-0.98742,-0.022085,0.106412,0.966936,2.918243,3.421754
577,-0.984273,0.152073,0.220755,-1.067731,0.049391,0.133716,1.155883,3.673583,5.687773
578,-0.986592,0.137474,0.233664,-1.048456,-0.024496,0.13452,1.911074,3.799498,3.107041
579,-0.981954,0.152073,0.233664,-1.08058,0.038147,0.12408,1.407564,2.918243,4.680604
580,-0.993548,0.14964,0.231082,-1.014726,-0.002008,0.115245,1.029968,2.477616,4.806519
581,-0.991229,0.144774,0.225918,-1.005891,0.004417,0.109623,1.281649,3.925264,3.547668
582,-0.995866,0.147207,0.236246,-1.029181,0.024494,0.120867,1.344681,4.428923,4.177094
583,-0.995866,0.147207,0.236246,-0.991435,0.004417,0.112032,1.344681,3.421754,4.806519
584,-0.986592,0.154506,0.2285,-1.042834,0.022887,0.119261,0.904053,2.855361,3.988296
585,-0.981954,0.14964,0.243992,-1.024363,-0.011645,0.103199,1.533478,4.428923,4.239976
586,-0.977317,0.14964,0.200099,-1.048456,0.019676,0.108821,1.218766,3.421754,4.239976
587,-0.984273,0.14964,0.21559,-1.030788,0.005219,0.108017,1.407564,3.232956,4.177094
588,-0.986592,0.156939,0.202681,-1.021953,0.010039,0.117654,1.029968,3.232956,5.058348
589,-0.986592,0.156939,0.202681,-1.013922,0.005219,0.113639,0.966936,2.666414,4.428923
590,-0.981954,0.152073,0.202681,-1.049258,0.018872,0.12167,1.281649,3.358871,4.239976
591,-0.98891,0.156939,0.220755,-1.046047,0.017267,0.113639,1.533478,3.862381,4.177094
592,-0.979636,0.144774,0.220755,-1.032394,0.010841,0.114443,1.092851,3.736466,4.051179
593,-0.984273,0.14964,0.246574,-1.011513,0.004417,0.118458,0.274628,2.729446,4.617721
594,-0.981954,0.156939,0.207845,-1.050865,-0.006827,0.11123,-3.124326,2.288818,4.303008
595,-0.977317,0.142341,0.243992,-1.013119,-0.005221,0.113639,-6.460399,4.491806,5.121231
596,-0.977317,0.142341,0.243992,-1.084595,0.026101,0.09035,-5.830974,2.477616,2.603531
597,-0.977317,0.152073,0.21559,-1.028379,0.030918,0.139338,-5.893856,3.421754,3.547668
598,-0.979636,0.147207,0.236246,-1.054078,0.071075,0.108821,-8.663386,6.380081,-0.480711
599,-0.979636,0.147207,0.210427,-1.037212,0.042967,0.079106,-12.251139,4.303008,4.051179
600,-0.970361,0.147207,0.202681,-1.045243,-0.005221,0.110427,-18.797218,-1.487881,3.547668
601,-0.97268,0.147207,0.220755,-1.005891,0.005219,0.120867,-18.797218,3.988296,5.373061
602,-0.97268,0.147207,0.220755,-1.056487,0.006826,0.116049,-20.119101,3.673583,3.799498
603,-0.968042,0.142341,0.220755,-1.032394,0.013252,0.127292,-17.349571,3.799498,3.862381
604,-0.981954,0.137474,0.205263,-1.038819,0.001204,0.113639,-15.77601,1.407564,2.288818
605,-0.970361,0.135041,0.17428,-1.009906,0.035738,0.120867,-13.321191,2.540499,3.295839
606,-0.97268,0.130175,0.213009,-1.038016,0.019676,0.114443,-9.040981,5.247146,4.239976
607,-0.974998,0.139907,0.220755,-1.072549,-0.003614,0.116049,-8.537472,3.484786,4.177094
608,-0.970361,0.130175,0.233664,-1.039621,-0.00763,0.112032,-10.551661,1.911074,3.107041
609,-0.970361,0.130175,0.233664,-1.014726,0.04136,0.115245,-6.523281,4.051179,4.114211
610,-0.979636,0.125308,0.207845,-1.029181,0.00281,0.119261,-8.474588,4.428923,4.491806
611,-0.977317,0.137474,0.207845,-1.041228,0.010841,0.108821,-6.900877,2.288818,4.428923
612,-0.979636,0.130175,0.220755,-1.05488,0.015661,0.116049,-2.432019,4.177094,3.673583
613,-0.977317,0.130175,0.218172,-1.042032,-0.010039,0.092759,-4.320293,3.547668,3.484786
614,-0.977317,0.130175,0.213009,-1.025166,0.019676,0.097577,-7.089824,3.610551,4.051179
615,-0.981954,0.122875,0.218172,-1.02115,0.022887,0.108821,-7.341504,3.484786,3.547668
616,-0.981954,0.122875,0.218172,-1.038016,0.006023,0.109623,-10.174066,4.114211,3.925264
617,-0.977317,0.137474,0.225918,-1.021953,0.014856,0.099183,-9.040981,3.232956,5.624742
618,-0.970361,0.120442,0.205263,-1.029181,0.008432,0.108017,-8.411556,3.358871,4.491806
619,-0.981954,0.122875,0.218172,-1.029984,0.023692,0.099183,-6.460399,2.981126,4.554689
620,-0.97268,0.110709,0.189771,-1.034803,0.006023,0.127292,-7.467419,3.421754,3.799498
621,-0.974998,0.127741,0.225918,-1.050865,0.034934,0.124883,-7.467419,3.547668,3.673583
622,-0.974998,0.127741,0.225918,-1.033999,0.015661,0.123276,-10.111034,3.799498,3.232956
623,-0.977317,0.118009,0.218172,-1.026772,0.017267,0.104805,-14.139414,3.547668,3.232956
624,-0.98891,0.118009,0.223336,-1.03159,-0.003614,0.123276,-14.202446,3.107041,3.799498
625,-0.991229,0.120442,0.194935,-1.044441,0.021283,0.128898,-12.062341,4.051179,4.680604
626,-0.979636,0.115576,0.207845,-1.04685,0.00281,0.092759,-10.362864,3.107041,5.247146
627,-0.984273,0.105843,0.220755,-1.041228,0.012448,0.118458,-14.894754,3.170073,4.428923
628,-0.986592,0.108276,0.207845,-1.000269,-0.017267,0.106412,-22.196175,2.792329,3.736466
629,-0.986592,0.108276,0.207845,-1.040425,0.039754,0.092759,-30.504763,3.044158,3.170073
630,-0.979636,0.09611,0.243992,-1.032394,0.034132,0.087137,-36.73613,2.855361,1.974106
631,-0.991229,0.105843,0.207845,-0.989026,-0.006827,0.099183,-37.428589,2.603531,3.799498
632,-0.979636,0.110709,0.205263,-1.009906,0.017267,0.128096,-32.204239,1.533478,1.344681
633,-0.981954,0.098543,0.18719,-1.02115,0.032525,0.14496,-25.658161,3.925264,3.044158
634,-0.986592,0.098543,0.197517,-1.017135,0.002008,0.113639,-19.426643,3.358871,3.610551
635,-0.986592,0.098543,0.197517,-1.013119,-0.000401,0.115245,-16.908943,2.477616,3.295839
636,-0.984273,0.09611,0.189771,-1.039621,0.028509,0.112032,-17.034859,3.232956,3.547668
637,-0.986592,0.086378,0.200099,-1.033197,0.028509,0.104805,-16.216637,4.428923,1.596361
638,-0.98891,0.098543,0.197517,-1.035606,0.009234,0.117654,-16.594231,5.058348,3.862381
639,-0.991229,0.093677,0.207845,-1.034803,-0.002008,0.108821,-21.62978,3.107041,3.925264
640,-0.991229,0.083944,0.179444,-1.038016,0.017267,0.108017,-20.685493,2.100021,4.239976
641,-0.986592,0.088811,0.16137,-1.038819,0.021283,0.101592,-20.937325,3.799498,4.303008
642,-0.986592,0.088811,0.16137,-1.034803,0.00281,0.10079,-19.237846,3.044158,4.051179
643,-0.977317,0.083944,0.225918,-1.04685,0.014856,0.101592,-20.937325,2.603531,4.428923
644,-0.984273,0.076645,0.197517,-1.029984,0.026903,0.120867,-18.986166,3.107041,1.911074
645,-0.984273,0.088811,0.182025,-1.02115,0.056618,0.105608,-18.86025,3.862381,3.862381
646,-0.981954,0.071779,0.176862,-1.05488,0.004417,0.104805,-21.692663,3.421754,3.610551
647,-0.981954,0.083944,0.179444,-1.038016,-0.002008,0.118458,-23.518055,1.659393,2.918243
648,-0.981954,0.083944,0.179444,-1.028379,0.006023,0.092759,-23.203342,3.484786,4.491806
649,-0.977317,0.069346,0.17428,-1.029181,-0.015661,0.098381,-24.839788,3.107041,1.596361
650,-0.977317,0.059613,0.179444,-1.038819,0.055815,0.092759,-23.958683,2.918243,4.428923
651,-0.979636,0.062046,0.18719,-1.033197,0.022887,0.118458,-28.805285,1.785308,3.673583
652,-0.977317,0.052313,0.192353,-1.029181,0.003614,0.119261,-27.420521,2.225786,3.107041
653,-0.974998,0.057179,0.207845,-1.040425,0.026101,0.10079,-26.224554,2.981126,2.918243
654,-0.977317,0.04988,0.18719,-1.026772,-0.003614,0.145764,-26.098639,3.547668,3.107041
655,-0.977317,0.04988,0.18719,-1.030788,0.026903,0.120065,-27.546436,4.114211,2.729446
656,-0.977317,0.052313,0.192353,-1.024363,-0.011645,0.112836,-26.728064,2.100021,2.351701
657,-0.981954,0.04988,0.17428,-1.006695,0.040556,0.081515,-30.001255,3.925264,3.232956
658,-0.974998,0.047447,0.189771,-1.040425,-0.000401,0.096774,-45.422318,3.484786,1.722276
659,-0.965724,0.04988,0.205263,-1.025968,0.082317,0.099183,-64.557198,4.303008,2.855361
660,-0.977317,0.047447,0.197517,-1.077367,-0.010039,0.161022,-70.914474,0.904053,-1.991391
661,-0.977317,0.040147,0.182025,-1.058896,0.058224,0.12408,-58.514626,0.526309,1.722276
662,-0.977317,0.040147,0.182025,-1.082989,0.000401,0.132914,-56.311638,3.862381,2.666414
663,-0.977317,0.037714,0.156206,-1.025968,0.108821,0.150582,-58.640541,2.981126,3.988296
664,-0.979636,0.018249,0.197517,-1.019544,-0.010843,0.044571,-55.87101,1.722276,5.435944
665,-0.97268,0.013383,0.148461,-1.027575,-0.033329,0.138536,-35.917908,4.303008,4.239976
666,-0.968042,0.020682,0.156206,-0.988222,-0.032527,0.055815,-28.553455,1.344681,1.911074
667,-0.97268,0.015816,0.138133,-1.025968,0.00763,0.131307,-36.23262,3.610551,2.351701
668,-0.97268,0.015816,0.138133,-1.07014,0.071877,0.079106,-28.175861,4.491806,3.107041
669,-0.968042,0.010949,0.16137,-1.046047,-0.013252,0.093561,-27.92403,3.484786,2.540499
670,-0.974998,-0.001216,0.17428,-1.018741,0.002008,0.099183,-21.000355,-0.165999,4.617721
671,-0.974998,0.001216,0.163952,-1.048456,0.017267,0.125685,-22.8256,-1.110137,4.806519
672,-0.97268,0.013383,0.16137,-1.02115,0.071877,0.106412,-25.091618,4.743636,4.303008
673,-0.981954,-0.00365,0.140715,-1.004284,-0.034936,0.097577,-20.685493,6.191283,3.736466
674,-0.974998,-0.008516,0.130387,-1.070942,0.006023,0.151384,-8.411556,4.932433,1.407564
675,-0.974998,-0.008516,0.130387,-1.06532,-0.018874,0.113639,-15.461296,-0.103116,4.680604
676,-0.977317,-0.008516,0.138133,-1.001875,0.050193,0.099183,-10.236949,5.876571,3.925264
677,-0.968042,-0.00365,0.143297,-1.019544,0.010039,0.108017,-9.292811,7.638931,1.659393
678,-0.968042,-0.010949,0.122641,-1.059698,0.009234,0.108821,-12.377053,2.162904,5.373061
679,-0.977317,-0.013382,0.135551,-1.030788,-0.001205,0.099183,-8.663386,0.715256,4.491806
680,-0.977317,-0.023115,0.130387,-1.028379,0.053407,0.09597,-18.04188,3.799498,4.239976
681,-0.977317,-0.023115,0.130387,-1.038819,0.00281,0.08553,-22.8256,4.177094,3.044158
682,-0.970361,-0.018249,0.135551,-0.999466,0.039754,0.095168,-26.539267,1.911074,3.547668
683,-0.981954,-0.025548,0.117477,-1.005891,-0.035738,0.081515,-23.266226,-2.243072,4.491806
684,-0.984273,-0.030414,0.125223,-1.019544,-0.011645,0.128898,-6.145686,3.736466,5.561858
685,-0.977317,-0.032848,0.125223,-1.02115,0.015661,0.12408,-2.809614,5.624742,3.925264
686,-0.974998,-0.040147,0.145879,-1.029181,0.019676,0.108017,-0.606626,5.498976,4.995317
687,-0.97268,-0.025548,0.135551,-1.027575,0.005219,0.104805,-2.117306,2.855361,3.673583
688,-0.97268,-0.025548,0.135551,-1.009104,-0.000401,0.110427,-3.816784,2.918243,3.358871
689,-0.977317,-0.035281,0.143297,-1.025166,0.021283,0.104805,-10.425747,4.743636,4.491806
690,-0.977317,-0.030414,0.122641,-1.04685,-0.002008,0.128096,-16.090721,5.310029,2.540499
691,-0.984273,-0.035281,0.125223,-1.049258,0.031723,0.12408,-23.077429,2.792329,-0.669509
692,-0.98891,-0.030414,0.12006,-1.041228,0.026903,0.118458,-26.539267,1.848191,3.044158
693,-0.986592,-0.035281,0.12006,-1.034803,-0.003614,0.083121,-30.630676,1.533478,3.925264
694,-0.986592,-0.035281,0.12006,-1.053274,0.014054,0.127292,-32.707752,2.414733,1.659393
695,-0.970361,-0.040147,0.122641,-1.018741,-0.042967,0.084728,-25.846958,1.848191,2.100021
696,-0.974998,-0.047447,0.117477,-1.067731,0.050998,0.092759,-30.378847,2.414733,5.687773
697,-0.979636,-0.040147,0.101986,-0.983404,-0.057422,0.079908,-27.168692,2.540499,3.295839
698,-0.974998,-0.045014,0.104568,-1.089415,0.028509,0.147369,-21.252037,4.114211,5.561858
699,-0.97268,-0.027981,0.127805,-1.03641,-0.010039,0.110427,-14.328212,3.107041,3.170073
700,-0.97268,-0.035281,0.117477,-1.025166,0.020479,0.077499,-17.223656,3.736466,2.036989
701,-0.97268,-0.035281,0.117477,-0.988222,0.045376,0.08553,-24.965704,4.617721,1.911074
702,-0.974998,-0.04258,0.114896,-1.051667,-0.002812,0.128898,-40.70163,5.624742,3.610551
703,-0.986592,-0.04988,0.117477,-1.033999,0.024494,0.1297,-48.695354,1.344681,3.170073
704,-0.979636,-0.054746,0.132969,-1.03159,0.010841,0.072682,-62.920597,-1.739562,3.232956
705,-0.986592,-0.052313,0.104568,-1.006695,-0.043769,0.112836,-65.123589,1.911074,1.911074
706,-0.98891,-0.069345,0.099404,-1.042834,0.018872,0.122474,-63.801857,2.100021,1.911074
707,-0.98891,-0.069345,0.099404,-1.039621,0.082317,0.088743,-55.178555,2.666414,1.911074
708,-0.986592,-0.071779,0.086495,-1.058896,-0.042164,0.120065,-48.569592,3.547668,-5.642027
709,-0.970361,-0.081511,0.096822,-1.032394,-0.002812,0.118458,-38.75032,5.561858,3.673583
710,-0.977317,-0.079078,0.091658,-1.050865,0.054209,0.109623,-28.427542,-2.180189,-1.424849
711,-0.979636,-0.083944,0.104568,-1.023559,-0.010843,0.135323,-30.378847,1.470596,5.561858
712,-0.986592,-0.083944,0.12006,-0.990633,0.023692,0.122474,-31.574818,6.694794,5.435944
713,-0.98891,-0.088811,0.076167,-1.040425,-0.010843,0.125685,-31.637699,5.750656,2.729446
714,-0.98891,-0.088811,0.076167,-1.05488,0.032525,0.101592,-34.721939,2.981126,2.918243
715,-0.979636,-0.088811,0.086495,-1.053274,0.015661,0.105608,-41.331055,2.288818,2.792329
716,-0.981954,-0.093677,0.083912,-1.013119,0.018872,0.084728,-45.73703,3.421754,3.170073
717,-0.974998,-0.093677,0.063257,-1.019544,-0.023692,0.115245,-45.485348,3.170073,2.162904
718,-0.974998,-0.093677,0.112314,-1.024363,0.028509,0.114443,-40.386917,1.596361,2.918243
719,-0.970361,-0.100976,0.076167,-1.025968,0.006826,0.135323,-30.378847,0.841171,2.792329
720,-0.968042,-0.100976,0.065839,-1.021953,0.018872,0.141749,-16.153605,2.918243,3.107041
721,-0.968042,-0.100976,0.065839,-1.002679,0.029314,0.125685,-4.446208,4.869551,4.239976
722,-0.981954,-0.098543,0.101986,-1.020348,0.034132,0.083924,-2.180189,4.428923,5.121231
723,-0.981954,-0.093677,0.109732,-1.029181,-0.011645,0.105608,-3.627837,1.848191,4.303008
724,-0.965724,-0.100976,0.060675,-1.023559,-0.010039,0.110427,-1.424849,1.659393,5.876571
725,-0.970361,-0.10341,0.063257,-1.030788,0.00763,0.108017,-0.606626,5.498976,4.365891
726,-0.974998,-0.105843,0.086495,-1.044441,-0.017267,0.088743,-3.187209,5.876571,3.925264
727,-0.974998,-0.105843,0.086495,-1.027575,0.008432,0.12167,-7.152706,2.603531,3.232956
728,-0.979636,-0.105843,0.060675,-1.022757,0.131307,0.046178,-14.07653,3.295839,3.862381
729,-0.97268,-0.10341,0.063257,-1.088611,-0.034132,0.087939,-21.252037,4.995317,1.848191
730,-0.979636,-0.09611,0.045184,-1.025166,0.061437,0.092759,-25.721043,4.932433,4.995317
731,-0.986592,-0.10341,0.060675,-1.013922,-0.005221,0.10079,-35.414398,-0.480711,2.162904
732,-0.977317,-0.098543,0.071003,-1.050865,0.052602,0.12408,-41.142254,2.036989,3.358871
733,-0.986592,-0.122875,0.032274,-1.050865,-0.022085,0.116049,-39.316864,3.736466,2.855361
734,-0.986592,-0.122875,0.032274,-1.025166,0.053407,0.108821,-33.840687,2.918243,2.981126
735,-0.979636,-0.113142,0.065839,-1.013119,-0.006827,0.120065,-32.833664,2.981126,2.666414
736,-0.974998,-0.118009,0.045184,-1.02115,0.024494,0.101592,-38.435608,3.799498,1.659393
737,-0.981954,-0.122875,0.060675,-1.03159,0.026101,0.110427,-45.80006,3.232956,2.729446
738,-0.970361,-0.110709,0.037438,-1.05488,0.038951,0.092759,-49.891323,2.162904,1.659393
739,-0.981954,-0.132608,0.047766,-1.074958,-0.003614,0.124883,-55.87101,2.792329,2.603531
740,-0.981954,-0.132608,0.047766,-1.087808,-0.003614,0.113639,-59.332851,3.799498,2.414733
741,-0.979636,-0.125308,0.045184,-1.045243,0.032525,0.112836,-61.661755,2.351701,-0.480711
742,-0.984273,-0.147207,0.050347,-1.029181,0.00763,0.157811,-61.158237,2.036989,1.407564
743,-0.981954,-0.147207,0.037438,-1.050865,0.029314,0.135323,-54.360329,2.351701,0.778139
744,-0.970361,-0.14234,0.032274,-1.07014,-0.002008,0.116049,-45.73703,2.288818,1.470596
745,-0.97268,-0.154506,0.016783,-1.069336,0.01807,0.120065,-40.072205,3.484786,2.603531
746,-0.968042,-0.159373,0.011619,-1.007497,0.011645,0.115245,-36.799164,3.925264,2.918243
747,-0.968042,-0.159373,0.011619,-0.985011,0.022887,0.109623,-42.778702,3.358871,3.358871
748,-0.979636,-0.147207,0.006455,-1.017135,0.018872,0.11123,-44.981689,1.533478,2.981126
749,-0.984273,-0.161806,0.021947,-1.042834,0.010841,0.147369,-41.897446,2.225786,1.911074
750,-0.97268,-0.164239,0.001291,-1.051667,0.006023,0.126489,-35.162567,3.170073,2.540499
751,-0.970361,-0.164239,0.003873,-1.070942,0.018872,0.127292,-28.112829,2.414733,1.533478
752,-0.965724,-0.166672,0.019365,-1.048456,0.013252,0.103199,-21.56675,2.666414,3.232956
753,-0.965724,-0.166672,0.019365,-1.033197,0.012448,0.122474,-15.901924,2.981126,3.170073
754,-0.970361,-0.171539,-0.003873,-1.025166,0.021283,0.125685,-10.677576,3.421754,3.736466
755,-0.979636,-0.171539,-0.003873,-1.023559,0.028509,0.094365,-8.663386,3.799498,2.603531
756,-0.97268,-0.171539,0.009037,-1.054078,0.034934,0.130505,-10.488778,3.799498,3.799498
757,-0.977317,-0.166672,0.001291,-1.060503,0.024494,0.108821,-13.635903,3.358871,3.295839
758,-0.968042,-0.171539,0.016783,-1.038819,0.012448,0.116049,-19.678474,3.232956,3.799498
759,-0.963405,-0.186137,-0.021946,-1.014726,0.021283,0.113639,-27.231724,4.491806,3.170073
760,-0.963405,-0.186137,-0.021946,-1.045243,0.022085,0.102396,-32.330154,2.981126,2.540499
761,-0.961086,-0.176405,0.001291,-1.053274,0.015661,0.10079,-34.659058,1.155883,3.044158
762,-0.970361,-0.176405,-0.021946,-1.049258,0.014054,0.108017,-33.274292,4.303008,4.554689
763,-0.968042,-0.183704,-0.0142,-1.038819,0.009234,0.116852,-24.273396,2.225786,3.107041
764,-0.961086,-0.178838,-0.001291,-1.025166,0.014856,0.114443,-17.286688,3.295839,3.044158
765,-0.970361,-0.191004,-0.045183,-1.017937,0.016463,0.109623,-13.321191,3.484786,3.421754
766,-0.970361,-0.191004,-0.045183,-1.025968,0.037345,0.108821,-9.985119,3.799498,3.799498
767,-0.970361,-0.181271,0.001291,-1.038016,0.015661,0.099986,-16.216637,4.617721,3.170073
768,-0.97268,-0.181271,-0.032274,-1.049258,0.030116,0.12167,-26.539267,4.743636,2.792329
769,-0.965724,-0.181271,-0.001291,-1.050865,0.034934,0.088743,-37.49147,2.918243,2.414733
770,-0.979636,-0.193437,-0.006455,-1.041228,0.038147,0.098381,-45.359432,1.785308,2.792329
771,-0.977317,-0.183704,-0.045183,-1.041228,-0.011645,0.087939,-40.197968,1.407564,2.855361
772,-0.974998,-0.191004,-0.065839,-1.05488,0.014054,0.12408,-29.308796,3.295839,3.170073
773,-0.974998,-0.191004,-0.065839,-1.052472,0.000401,0.144158,-19.237846,2.036989,3.107041
774,-0.958768,-0.193437,-0.034856,-1.029984,0.013252,0.106412,-11.055172,4.051179,4.239976
775,-0.970361,-0.210469,-0.042601,-1.029181,0.028509,0.128898,-9.418726,4.051179,4.428923
776,-0.963405,-0.208036,-0.052929,-1.038819,0.030116,0.108017,-14.07653,3.673583,3.925264
777,-0.961086,-0.198303,-0.034856,-1.044441,0.016463,0.12408,-18.419624,3.295839,3.547668
778,-0.970361,-0.198303,-0.050347,-1.042834,0.034132,0.112032,-19.930304,2.666414,3.736466
779,-0.970361,-0.198303,-0.050347,-1.028379,0.031723,0.12167,-21.252037,2.792329,3.547668
780,-0.97268,-0.205603,-0.042601,-1.027575,0.014856,0.130505,-21.063238,3.736466,3.736466
781,-0.968042,-0.198303,-0.04002,-1.033197,-0.022085,0.214831,-24.839788,4.365891,4.239976
782,-0.968042,-0.208036,-0.021946,-0.956901,0.054209,0.133716,-16.720146,5.310029,6.569028
783,-0.963405,-0.19587,-0.060675,-0.99786,0.006023,0.118458,-19.174963,0.715256,3.925264
784,-0.951812,-0.198303,-0.050347,-1.009104,0.039754,0.105608,-12.81768,2.162904,7.135421
785,-0.95413,-0.200736,-0.071003,-1.017135,-0.010843,0.123276,-9.418726,3.421754,4.869551
786,-0.95413,-0.200736,-0.071003,-1.033197,0.014856,0.113639,-4.257262,3.547668,3.925264
787,-0.968042,-0.205603,-0.068421,-1.030788,0.020479,0.108017,-1.173019,2.855361,4.239976
788,-0.963405,-0.208036,-0.060675,-1.039621,0.024494,0.127292,-0.858307,2.792329,4.051179
789,-0.974998,-0.193437,-0.055511,-1.038819,0.035738,0.1297,-2.494901,4.869551,4.114211
790,-0.97268,-0.205603,-0.073585,-1.043636,0.021283,0.102396,-4.760921,3.925264,4.114211
791,-0.979636,-0.200736,-0.050347,-1.024363,0.006826,0.108821,-7.215738,2.288818,4.114211
792,-0.963405,-0.20317,-0.073585,-1.012317,0.023692,0.119261,-5.138516,3.295839,3.736466
793,-0.963405,-0.20317,-0.073585,-1.014726,0.014054,0.119261,-5.138516,5.058348,3.044158
794,-0.968042,-0.210469,-0.042601,-1.059698,0.029314,0.098381,-4.635006,3.736466,4.617721
795,-0.970361,-0.210469,-0.050347,-1.049258,0.011645,0.098381,-3.690869,1.281649,4.428923
796,-0.968042,-0.200736,-0.037438,-1.038819,0.00281,0.133716,-0.606626,3.421754,5.373061
797,-0.961086,-0.208036,-0.058093,-1.017135,0.00281,0.10079,0.904053,4.239976,3.799498
798,-0.958768,-0.222635,-0.019364,-1.034803,0.042162,0.115245,1.155883,2.981126,4.051179
799,-0.958768,-0.222635,-0.019364,-1.019544,0.030918,0.120867,1.533478,3.295839,3.610551
800,-0.956449,-0.222635,-0.055511,-1.03159,0.034132,0.105608,1.281649,4.491806,4.051179
801,-0.963405,-0.232368,-0.047765,-1.03641,0.014054,0.110427,1.092851,4.554689,3.925264
802,-0.95413,-0.220202,-0.029692,-1.033197,0.024494,0.089546,1.155883,3.044158,4.365891
803,-0.974998,-0.212902,-0.065839,-1.042032,0.01807,0.130505,0.778139,3.421754,3.736466
804,-0.963405,-0.217769,-0.068421,-1.050865,0.024494,0.116852,0.085831,4.806519,3.736466
805,-0.965724,-0.208036,-0.060675,-1.028379,0.012448,0.11123,-1.236051,4.365891,3.736466
806,-0.965724,-0.208036,-0.060675,-1.038016,0.024494,0.120867,-1.487881,2.981126,4.617721
807,-0.963405,-0.215336,-0.068421,-1.029181,0.004417,0.114443,0.652224,2.729446,4.177094
808,-0.974998,-0.215336,-0.019364,-1.03159,0.024494,0.113639,1.029968,4.177094,4.554689
809,-0.979636,-0.229934,-0.055511,-1.038016,0.010841,0.136127,0.904053,3.925264,4.680604
810,-0.968042,-0.210469,-0.08133,-1.029181,0.008432,0.114443,1.218766,3.107041,4.051179
811,-0.965724,-0.215336,-0.073585,-1.03159,0.023692,0.146567,0.904053,4.177094,3.610551
812,-0.965724,-0.215336,-0.073585,-1.025968,0.029314,0.101592,0.778139,3.988296,4.114211
813,-0.958768,-0.225068,-0.096822,-1.025166,0.018872,0.133716,0.463426,3.547668,4.177094
814,-0.95413,-0.210469,-0.083912,-1.024363,0.013252,0.127292,-0.103116,3.610551,3.862381
815,-0.95413,-0.222635,-0.071003,-1.033197,0.023692,0.105608,-1.173019,4.051179,3.925264
816,-0.963405,-0.222635,-0.042601,-1.040425,-0.002812,0.10079,-2.180189,3.358871,4.114211
817,-0.963405,-0.220202,-0.058093,-1.029984,-0.003614,0.108821,-6.712079,2.603531,3.421754
818,-0.965724,-0.217769,-0.034856,-1.033197,0.030918,0.117654,-8.789301,3.107041,3.799498
819,-0.965724,-0.217769,-0.034856,-1.033999,0.114443,0.1297,-5.390346,5.876571,7.072538
820,-0.956449,-0.217769,-0.050347,-1.043636,-0.015661,0.130505,-2.180189,-1.487881,7.324219
821,-0.968042,-0.222635,-0.052929,-1.055683,0.008432,0.12167,-0.606626,4.680604,4.303008
822,-0.963405,-0.222635,-0.037438,-1.037212,0.013252,0.128096,-1.236051,5.247146,4.114211
823,-0.97268,-0.220202,-0.063257,-1.037212,0.019676,0.099183,-4.194379,1.533478,4.239976
824,-0.961086,-0.212902,-0.04002,-1.013119,0.006826,0.114443,-8.222759,2.729446,4.932433
825,-0.961086,-0.212902,-0.04002,-1.033197,0.022887,0.116852,-11.181087,7.638931,4.303008
826,-0.961086,-0.217769,-0.071003,-1.050865,0.00763,0.108017,-14.07653,5.310029,3.862381
827,-0.963405,-0.215336,-0.060675,-1.033999,0.006023,0.120867,-23.077429,-2.306104,3.421754
828,-0.951812,-0.212902,-0.045183,-1.021953,0.026101,0.127292,-32.204239,1.092851,2.666414
829,-0.965724,-0.215336,-0.045183,-1.033999,0.045376,0.091955,-37.49147,4.239976,2.100021
830,-0.963405,-0.222635,-0.047765,-1.055683,0.077499,0.110427,-43.659954,3.044158,2.855361
831,-0.974998,-0.215336,-0.065839,-1.033999,0.046178,0.102396,-54.675041,0.337511,4.743636
832,-0.974998,-0.215336,-0.065839,-0.895062,-0.00763,0.052602,-44.54121,5.813688,1.596361
833,-0.970361,-0.225068,-0.091658,-1.087004,0.022887,0.110427,-56.815147,6.317198,-0.858307
834,-0.963405,-0.227501,-0.104568,-1.038819,-0.014054,0.070271,-68.64846,9.275526,5.310029
835,-0.961086,-0.229934,-0.083912,-1.052472,0.034934,0.1554,-82.181396,-1.298934,-1.802593
836,-0.958768,-0.244534,-0.086494,-1.058896,0.044571,0.128096,-94.140617,-3.124326,2.603531
837,-0.965724,-0.2494,-0.096822,-1.03641,0.030918,0.142551,-105.848015,1.407564,0.966936
838,-0.958768,-0.259133,-0.076166,-1.04685,0.011645,0.118458,-107.169899,9.086728,-2.243072
839,-0.958768,-0.259133,-0.076166,-1.093431,0.038147,0.14496,-105.155708,1.659393,-2.494901
840,-0.958768,-0.266432,-0.117477,-1.029181,-0.032527,0.140142,-94.45533,1.659393,1.848191
841,-0.961086,-0.261566,-0.130387,-0.997057,0.044571,0.115245,-84.32135,1.281649,-1.110137
842,-0.958768,-0.268865,-0.138133,-1.029181,-0.002812,0.14978,-73.180351,3.610551,0.526309
843,-0.951812,-0.259133,-0.153624,-1.058094,0.052602,0.136929,-57.003944,3.673583,1.218766
844,-0.956449,-0.261566,-0.151042,-1.05488,-0.019676,0.104805,-51.779598,1.407564,2.855361
845,-0.956449,-0.261566,-0.151042,-1.045243,0.032525,0.102396,-53.038448,3.547668,1.722276
846,-0.949493,-0.268865,-0.158788,-1.024363,0.032525,0.102396,-55.115669,3.799498,2.729446
847,-0.951812,-0.276165,-0.145878,-1.02115,0.044571,0.104001,-62.605892,1.281649,2.729446
848,-0.944856,-0.281031,-0.14846,-1.015528,-0.000401,0.113639,-69.340912,0.400543,2.100021
849,-0.951812,-0.278598,-0.182025,-1.063716,-0.008432,0.139338,-71.669815,2.414733,1.281649
850,-0.949493,-0.283464,-0.197517,-1.067731,0.045376,0.09597,-64.11657,0.274628,1.281649
851,-0.958768,-0.278598,-0.207844,-1.035606,-0.027707,0.054209,-57.381538,3.107041,1.155883
852,-0.958768,-0.278598,-0.207844,-1.09584,0.07509,0.116852,-53.038448,5.247146,1.911074
853,-0.947174,-0.283464,-0.202681,-1.029181,-0.005221,0.133716,-48.25473,1.848191,3.988296
854,-0.944856,-0.278598,-0.207844,-1.050865,0.022887,0.098381,-46.99588,2.729446,2.100021
855,-0.958768,-0.281031,-0.205263,-1.042032,0.022887,0.130505,-41.645767,2.918243,2.351701
856,-0.947174,-0.283464,-0.207844,-1.042834,0.073484,0.109623,-36.862045,4.743636,2.855361
857,-0.947174,-0.276165,-0.21559,-1.049258,-0.029314,0.141749,-47.940018,5.624742,2.225786
858,-0.947174,-0.276165,-0.21559,-1.044441,0.010841,0.102396,-51.968395,2.729446,1.659393
859,-0.951812,-0.276165,-0.210426,-1.025968,0.024494,0.132914,-54.360329,0.966936,1.470596
860,-0.956449,-0.281031,-0.210426,-1.014726,0.029314,0.137733,-54.800957,3.170073,1.533478
861,-0.947174,-0.290764,-0.218172,-1.020348,0.023692,0.143353,-50.143154,4.932433,2.918243
862,-0.951812,-0.271299,-0.225918,-1.050865,0.031723,0.104805,-45.862942,3.044158,2.729446
863,-0.949493,-0.283464,-0.254319,-1.03641,0.016463,0.139338,-40.512829,2.603531,1.596361
864,-0.942537,-0.278598,-0.241409,-1.039621,0.029314,0.126489,-40.072205,3.044158,2.855361
865,-0.942537,-0.278598,-0.241409,-1.022757,0.013252,0.123276,-41.268021,2.792329,2.036989
866,-0.940218,-0.285897,-0.241409,-1.025968,0.019676,0.140945,-42.463989,3.799498,2.729446
867,-0.947174,-0.285897,-0.236246,-1.002679,0.027707,0.107214,-39.25383,3.925264,2.225786
868,-0.947174,-0.293197,-0.267228,-1.029984,-0.002008,0.141749,-39.883255,2.162904,1.974106
869,-0.942537,-0.290764,-0.256901,-1.03159,0.019676,0.128096,-36.73613,2.540499,2.981126
870,-0.942537,-0.290764,-0.285302,-1.027575,0.039754,0.101592,-30.315966,3.547668,3.421754
871,-0.942537,-0.290764,-0.285302,-1.033197,0.01807,0.136929,-24.650991,2.477616,4.554689
872,-0.942537,-0.288331,-0.256901,-1.004284,-0.021283,0.13452,-14.202446,3.799498,3.799498
873,-0.940218,-0.293197,-0.280138,-1.039621,0.032525,0.105608,-11.181087,4.177094,3.295839
874,-0.9379,-0.288331,-0.277556,-1.026772,0.038951,0.117654,-13.384074,3.421754,4.114211
875,-0.944856,-0.293197,-0.267228,-1.028379,0.010841,0.126489,-15.020669,2.918243,3.673583
876,-0.949493,-0.285897,-0.264647,-1.038016,0.012448,0.139338,-20.748526,4.491806,3.736466
877,-0.935581,-0.283464,-0.264647,-1.042032,0.022887,0.107214,-24.210363,3.547668,3.421754
878,-0.935581,-0.283464,-0.264647,-1.023559,0.011645,0.127292,-29.686541,3.421754,3.295839
879,-0.9379,-0.281031,-0.290466,-1.054078,0.031723,0.1297,-36.987961,3.170073,1.785308
880,-0.942537,-0.278598,-0.269811,-1.029181,0.03654,0.078302,-45.04472,2.540499,2.540499
881,-0.935581,-0.290764,-0.259483,-1.033999,0.030116,0.131307,-47.247707,4.239976,2.100021
882,-0.9379,-0.298063,-0.280138,-1.041228,0.015661,0.14978,-44.666977,2.225786,2.351701
883,-0.942537,-0.283464,-0.298212,-1.025166,0.030116,0.059831,-46.807079,4.051179,2.540499
884,-0.9379,-0.29563,-0.316285,-1.043636,0.030116,0.076697,-49.199017,3.295839,2.603531
885,-0.9379,-0.29563,-0.316285,-1.03641,0.0518,0.120065,-40.512829,0.966936,2.414733
886,-0.940218,-0.290764,-0.308539,-1.02115,0.038147,0.126489,-38.939117,3.044158,3.107041
887,-0.9379,-0.29563,-0.311121,-1.029984,0.020479,0.081515,-40.638596,5.813688,2.855361
888,-0.933262,-0.298063,-0.336941,-1.044441,0.018872,0.099183,-41.079224,1.848191,2.036989
889,-0.947174,-0.288331,-0.28272,-1.032394,0.016463,0.12167,-40.638596,1.092851,2.981126
890,-0.940218,-0.290764,-0.318867,-1.052472,0.04136,0.136929,-44.666977,3.170073,2.100021
891,-0.940218,-0.290764,-0.318867,-1.016332,0.032525,0.152189,-49.199017,4.365891,1.344681
892,-0.947174,-0.288331,-0.331777,-1.001875,0.027707,0.086333,-51.590801,2.855361,1.407564
893,-0.935581,-0.298063,-0.318867,-1.013119,-0.018874,0.151384,-59.144051,0.148714,1.218766
894,-0.9379,-0.281031,-0.324031,-1.035606,0.044571,0.110427,-63.613056,4.932433,0.589341
895,-0.930944,-0.298063,-0.329195,-1.028379,0.006826,0.124883,-70.347939,1.596361,-0.040084
896,-0.933262,-0.30293,-0.318867,-1.030788,0.055815,0.118458,-74.250397,2.729446,0.841171
897,-0.935581,-0.290764,-0.329195,-1.030788,0.039754,0.086333,-80.481918,5.750656,0.715256
898,-0.935581,-0.290764,-0.329195,-1.057289,0.083121,0.07509,-88.853386,2.855361,0.463426
899,-0.926307,-0.298063,-0.347268,-1.03159,0.022085,0.114443,-90.678635,-0.417829,1.911074
900,-0.930944,-0.290764,-0.391161,-1.03641,0.056618,0.143353,-91.182289,2.477616,0.841171
901,-0.933262,-0.30293,-0.385997,-0.989829,-0.015661,0.124883,-92.629936,3.862381,0.148714
902,-0.930944,-0.29563,-0.393743,-1.083793,0.034934,0.118458,-84.447266,3.295839,-0.606626
903,-0.935581,-0.288331,-0.404071,-1.0083,-0.001205,0.116852,-76.76825,1.029968,-0.858307
904,-0.935581,-0.288331,-0.404071,-1.02115,0.024494,0.139338,-74.187515,3.484786,-0.228882
905,-0.926307,-0.285897,-0.427308,-1.03159,0.01807,0.12167,-67.578407,2.288818,0.966936
906,-0.928625,-0.288331,-0.411816,-1.019544,-0.014054,0.137733,-55.556297,3.799498,0.841171
907,-0.923988,-0.278598,-0.432471,-1.022757,-0.002008,0.13452,-40.827541,4.114211,0.841171
908,-0.930944,-0.293197,-0.435053,-0.999466,-0.042967,0.114443,-28.490574,5.310029,2.162904
909,-0.923988,-0.285897,-0.455709,-1.014726,0.031723,0.09035,-21.944492,7.450133,0.148714
910,-0.926307,-0.290764,-0.424726,-1.029984,-0.008432,0.095168,-24.08445,8.89793,0.589341
911,-0.926307,-0.290764,-0.424726,-0.984207,0.163433,0.22768,-25.280416,-10.048151,5.310029
912,-0.930944,-0.285897,-0.445381,-0.989829,0.019676,0.156204,-27.67235,-5.516261,8.520185
913,-0.930944,-0.283464,-0.447963,-1.072549,0.004417,0.12408,-29.245914,23.374855,4.428923
914,-0.930944,-0.285897,-0.435053,-1.04685,0.056618,0.106412,-45.170635,9.716153,1.029968
915,-0.933262,-0.285897,-0.455709,-1.099051,0.050193,0.128096,-74.691025,-13.384074,7.450133
916,-0.930944,-0.281031,-0.445381,-0.948067,0.042967,0.139338,-95.336586,-16.846062,3.799498
917,-0.923988,-0.276165,-0.481528,-1.262082,-0.309598,0.059029,-93.322395,19.031763,-7.970929
918,-0.923988,-0.276165,-0.481528,-0.939234,0.181099,-0.023692,-88.098053,26.899725,0.526309
919,-0.917032,-0.271299,-0.489274,-1.131979,0.056618,0.071877,-94.832924,-9.229928,-1.676679
920,-0.912394,-0.268865,-0.481528,-1.018741,-0.006827,0.108017,-96.784233,-17.223656,0.085831
921,-0.914713,-0.271299,-0.504765,-1.017135,-0.01807,0.230893,-88.035019,-10.929256,5.561858
922,-0.905439,-0.273732,-0.507347,-1.013119,0.074286,0.163433,-74.502228,10.912121,0.841171
923,-0.923988,-0.261566,-0.509929,-1.017135,0.032525,0.101592,-68.270859,8.079558,1.092851
924,-0.923988,-0.261566,-0.509929,-1.057289,-0.055013,0.09035,-68.144951,2.792329,-0.040084
925,-0.910076,-0.273732,-0.53833,-1.09584,0.059831,0.133716,-69.592598,-1.613647,-0.040084
926,-0.91935,-0.263999,-0.535748,-0.965736,0.014856,0.106412,-81.80365,-0.040084,1.533478
927,-0.917032,-0.256699,-0.533166,-1.107886,0.021283,0.132111,-93.259361,5.624742,-2.117306
928,-0.910076,-0.244534,-0.540912,-1.012317,0.030918,0.108017,-102.512093,3.232956,-1.613647
929,-0.921669,-0.251833,-0.561568,-1.033999,0.054209,0.131307,-110.128227,3.358871,-2.432019
930,-0.91935,-0.259133,-0.569313,-1.078973,-0.032527,0.137733,-95.147636,-0.984222,1.407564
931,-0.91935,-0.259133,-0.569313,-1.055683,0.052602,0.131307,-69.90731,9.904951,3.295839
932,-0.910076,-0.239667,-0.571895,-1.045243,0.046982,0.161826,-52.346142,1.281649,0.778139
933,-0.910076,-0.246967,-0.584805,-1.021953,0.025298,0.1554,-42.715816,-2.117306,1.407564
934,-0.914713,-0.227501,-0.589969,-1.009906,0.001204,0.140142,-35.980789,3.421754,0.400543
935,-0.910076,-0.239667,-0.602878,-1.01071,0.034934,0.089546,-34.533142,3.232956,2.729446
936,-0.900801,-0.234801,-0.602878,-1.050063,0.017267,0.120867,-35.854877,3.673583,3.421754
937,-0.900801,-0.234801,-0.602878,-1.033197,0.009234,0.163433,-36.043823,3.610551,5.435944
938,-0.917032,-0.229934,-0.587387,-1.033999,0.020479,0.124883,-27.420521,4.051179,1.974106
939,-0.912394,-0.244534,-0.569313,-1.042032,0.030918,0.12167,-26.728064,3.044158,2.100021
940,-0.898483,-0.222635,-0.61837,-1.03159,0.030918,0.112032,-27.105808,1.344681,2.162904
941,-0.910076,-0.227501,-0.579641,-1.030788,0.004417,0.144158,-29.182882,3.044158,2.603531
942,-0.912394,-0.227501,-0.571895,-1.049258,0.010841,0.122474,-23.64397,6.065369,2.792329
943,-0.90312,-0.220202,-0.600296,-1.027575,0.028509,0.092759,-26.728064,4.428923,3.736466
944,-0.90312,-0.220202,-0.600296,-1.032394,0.023692,0.140142,-26.539267,1.407564,3.232956
945,-0.907757,-0.217769,-0.615788,-1.018741,0.015661,0.14978,-23.455025,0.274628,4.428923
946,-0.907757,-0.217769,-0.610624,-1.03641,0.014054,0.154598,-19.426643,3.925264,3.673583
947,-0.912394,-0.222635,-0.602878,-1.024363,0.023692,0.099183,-18.671305,5.247146,4.051179
948,-0.917032,-0.220202,-0.613206,-1.03159,0.009234,0.137733,-20.559729,2.225786,3.358871
949,-0.912394,-0.215336,-0.610624,-1.032394,0.034934,0.122474,-26.917011,1.029968,2.100021
950,-0.912394,-0.215336,-0.610624,-1.038819,0.014856,0.135323,-27.546436,3.107041,3.107041
951,-0.905439,-0.217769,-0.631279,-1.02115,0.014856,0.135323,-22.762716,3.484786,3.862381
952,-0.898483,-0.212902,-0.631279,-1.023559,0.021283,0.124883,-24.965704,3.547668,2.603531
953,-0.907757,-0.215336,-0.633861,-1.025166,0.004417,0.116049,-24.713875,3.358871,2.288818
954,-0.907757,-0.210469,-0.633861,-1.025968,0.011645,0.116852,-25.972874,2.351701,2.603531
955,-0.896164,-0.210469,-0.646771,-1.038819,0.038951,0.12408,-27.168692,2.036989,2.792329
956,-0.900801,-0.215336,-0.636443,-1.040425,0.022887,0.112032,-29.308796,4.303008,2.351701
957,-0.900801,-0.215336,-0.636443,-1.026772,0.016463,0.115245,-28.868168,4.365891,2.792329
958,-0.898483,-0.200736,-0.644189,-1.02115,0.014856,0.109623,-31.700729,2.036989,3.107041
959,-0.893845,-0.208036,-0.641607,-1.03159,0.014856,0.114443,-33.525974,2.036989,3.295839
960,-0.905439,-0.200736,-0.631279,-1.02115,0.01807,0.10079,-32.39304,3.295839,3.358871
961,-0.90312,-0.208036,-0.657099,-1.017937,0.000401,0.150582,-27.798117,2.603531,2.792329
962,-0.898483,-0.188571,-0.633861,-1.032394,0.014856,0.136127,-21.755547,2.918243,3.044158
963,-0.90312,-0.178838,-0.664844,-1.029984,0.025298,0.145764,-23.832767,3.610551,2.855361
964,-0.90312,-0.178838,-0.664844,-1.03159,0.020479,0.126489,-27.483404,3.925264,3.421754
965,-0.907757,-0.198303,-0.631279,-1.047652,0.030918,0.135323,-29.371828,2.351701,3.295839
966,-0.90312,-0.193437,-0.67259,-1.017135,0.029314,0.116852,-31.322989,1.785308,2.792329
967,-0.898483,-0.191004,-0.644189,-1.042032,0.022085,0.117654,-29.119999,3.925264,2.918243
968,-0.889208,-0.186137,-0.646771,-1.042834,0.031723,0.131307,-28.364658,1.659393,3.044158
969,-0.893845,-0.171539,-0.646771,-1.034803,0.034132,0.104805,-31.386017,3.925264,4.051179
970,-0.893845,-0.171539,-0.646771,-1.03641,0.042162,0.104805,-32.896549,2.100021,2.792329
971,-0.889208,-0.186137,-0.677754,-1.030788,0.010841,0.120867,-37.743301,2.981126,3.988296
972,-0.889208,-0.186137,-0.664844,-1.037212,0.016463,0.124883,-36.106705,2.162904,2.981126
973,-0.896164,-0.176405,-0.659681,-1.029181,0.027707,0.157006,-32.39304,2.477616,3.610551
974,-0.893845,-0.169105,-0.664844,-1.021953,-0.002008,0.137733,-28.553455,3.358871,3.232956
975,-0.891526,-0.164239,-0.67259,-1.032394,0.01807,0.116049,-21.189154,2.162904,4.177094
976,-0.896164,-0.171539,-0.670008,-1.033999,0.015661,0.120065,-14.265328,3.232956,3.610551
977,-0.896164,-0.171539,-0.670008,-1.044441,0.038951,0.108017,-13.698788,3.547668,3.988296
978,-0.898483,-0.169105,-0.667426,-1.050865,0.037345,0.115245,-12.125224,2.918243,3.610551
979,-0.893845,-0.166672,-0.700991,-1.024363,0.034132,0.127292,-15.650093,3.799498,3.358871
980,-0.900801,-0.154506,-0.677754,-1.03159,0.015661,0.112032,-21.881462,3.610551,3.358871
981,-0.90312,-0.159373,-0.711319,-1.038819,0.032525,0.087939,-27.798117,1.974106,2.981126
982,-0.900801,-0.159373,-0.680336,-1.032394,0.022085,0.113639,-40.575714,3.107041,2.792329
983,-0.900801,-0.159373,-0.680336,-1.050865,0.037345,0.1297,-45.422318,2.540499,2.036989
984,-0.898483,-0.152073,-0.677754,-1.020348,0.014856,0.118458,-45.107605,1.407564,2.162904
985,-0.912394,-0.154506,-0.716483,-1.025968,0.00763,0.137733,-37.869064,2.414733,2.225786
986,-0.900801,-0.147207,-0.667426,-1.014726,0.033329,0.13452,-29.434711,4.114211,2.855361
987,-0.90312,-0.144774,-0.700991,-1.044441,0.018872,0.132914,-27.357637,3.673583,2.100021
988,-0.898483,-0.152073,-0.6855,-1.032394,0.014856,0.130505,-24.902821,2.351701,2.981126
989,-0.900801,-0.144774,-0.700991,-1.045243,0.019676,0.131307,-22.384972,2.666414,2.792329
990,-0.900801,-0.144774,-0.700991,-1.023559,0.023692,0.132111,-20.622612,3.107041,3.799498
991,-0.907757,-0.144774,-0.680336,-1.061305,0.026101,0.115245,-25.40633,3.736466,2.918243
992,-0.90312,-0.144774,-0.713901,-1.050063,0.050193,0.094365,-28.364658,2.603531,2.729446
993,-0.900801,-0.135041,-0.693246,-1.044441,0.022085,0.108821,-35.791992,2.981126,2.666414
994,-0.898483,-0.132608,-0.688082,-1.041228,0.039754,0.109623,-44.289379,4.303008,2.792329
995,-0.90312,-0.130174,-0.719065,-1.03641,0.008432,0.115245,-47.499538,3.421754,2.036989
996,-0.90312,-0.130174,-0.719065,-1.043636,0.005219,0.136127,-42.904617,1.407564,3.044158
997,-0.896164,-0.130174,-0.695827,-1.033999,0.030918,0.128898,-38.498642,1.785308,2.414733
998,-0.896164,-0.118009,-0.711319,-1.042834,0.01807,0.136929,-32.141209,4.428923,4.114211
999,-0.898483,-0.122875,-0.706155,-1.043636,0.022085,0.140945,-23.455025,0.589341,3.421754
1000,-0.896164,-0.105843,-0.737138,-1.03641,0.010841,0.146567,-19.930304,3.044158,4.303008
1001,-0.914713,-0.113142,-0.703573,-1.041228,0.018872,0.145764,-17.286688,4.428923,3.421754
1002,-0.907757,-0.122875,-0.734556,-1.041228,0.015661,0.10079,-23.706854,2.100021,2.855361
1003,-0.907757,-0.122875,-0.734556,-1.026772,0.042967,0.091955,-29.308796,3.547668,3.925264
1004,-0.898483,-0.113142,-0.724229,-1.044441,0.034934,0.084728,-35.47728,1.533478,4.239976
1005,-0.917032,-0.10341,-0.708737,-1.007497,0.014856,0.112032,-42.841732,3.547668,3.421754
1006,-0.90312,-0.09611,-0.737138,-1.035606,0.006826,0.143353,-36.295502,2.729446,2.100021
1007,-0.900801,-0.098543,-0.731974,-1.051667,0.038147,0.140142,-34.847855,0.715256,3.547668
1008,-0.898483,-0.093677,-0.724229,-1.022757,0.005219,0.13452,-34.092514,2.036989,2.477616
1009,-0.898483,-0.093677,-0.724229,-1.009906,0.035738,0.096774,-30.504763,2.981126,3.295839
1010,-0.900801,-0.098543,-0.734556,-1.043636,-0.00763,0.122474,-34.659058,2.162904,2.855361
1011,-0.900801,-0.088811,-0.716483,-1.009104,0.022085,0.123276,-38.372726,2.729446,2.729446
1012,-0.910076,-0.091244,-0.737138,-1.040425,0.002008,0.116049,-42.841732,3.673583,3.421754
1013,-0.893845,-0.076645,-0.750048,-1.029181,0.014856,0.12408,-45.73703,4.114211,3.610551
1014,-0.896164,-0.081511,-0.757794,-1.038016,0.006826,0.128096,-51.653683,2.981126,2.729446
1015,-0.905439,-0.069345,-0.75263,-1.001073,0.010841,0.127292,-52.472054,1.596361,1.407564
1016,-0.905439,-0.069345,-0.75263,-1.058896,0.014856,0.128898,-50.143154,3.358871,2.792329
1017,-0.896164,-0.057179,-0.757794,-1.014726,-0.003614,0.143353,-50.835461,4.365891,2.603531
1018,-0.893845,-0.069345,-0.757794,-1.02115,0.018872,0.115245,-49.765408,3.736466,3.295839
1019,-0.889208,-0.047447,-0.760376,-1.038819,0.026101,0.152189,-56.563316,2.855361,3.421754
1020,-0.893845,-0.052313,-0.765539,-1.014726,-0.002008,0.136929,-52.912682,3.484786,2.162904
1021,-0.898483,-0.040147,-0.762957,-1.041228,0.029314,0.120867,-49.199017,4.617721,2.477616
1022,-0.898483,-0.040147,-0.762957,-1.052472,0.025298,0.12167,-45.233517,4.177094,1.029968
1023,-0.896164,-0.047447,-0.773285,-1.047652,0.00763,0.123276,-42.086391,3.170073,1.659393
1024,-0.891526,-0.04258,-0.783613,-1.046047,-0.006827,0.118458,-41.96048,2.603531,2.666414
1025,-0.910076,-0.035281,-0.778449,-1.026772,0.014054,0.127292,-38.309692,2.666414,-1.550764
1026,-0.900801,-0.030414,-0.781031,-1.046047,0.010039,0.128898,-37.743301,-2.117306,-2.683699
1027,-0.896164,-0.023115,-0.747466,-1.000269,0.049391,0.150582,-32.644867,2.100021,6.065369
1028,-0.893845,-0.032848,-0.778449,-1.055683,-0.014054,0.145764,-33.400208,6.443113,2.918243
1029,-0.893845,-0.032848,-0.778449,-0.989026,0.024494,0.128096,-29.938223,4.869551,1.974106
1030,-0.886889,-0.015816,-0.783613,-1.061305,-0.004417,0.116049,-26.224554,0.400543,4.365891
1031,-0.886889,-0.008516,-0.793941,-1.039621,0.010039,0.152189,-23.266226,3.547668,3.799498
1032,-0.886889,-0.023115,-0.786195,-1.033999,0.019676,0.136929,-24.839788,7.198452,7.072538
1033,-0.886889,-0.015816,-0.80685,-1.027575,0.066255,0.142551,-24.336279,5.184263,2.855361
1034,-0.884571,-0.013382,-0.799104,-1.050865,0.008432,0.132111,-27.67235,-1.298934,3.547668
1035,-0.886889,-0.018249,-0.788777,-1.033999,0.031723,0.113639,-36.043823,4.365891,3.358871
1036,-0.886889,-0.018249,-0.788777,-1.042032,0.016463,0.124883,-40.072205,4.806519,2.477616
1037,-0.879933,-0.008516,-0.793941,-1.020348,0.025298,0.101592,-44.604092,2.100021,2.351701
1038,-0.879933,-0.001216,-0.824924,-1.043636,0.021283,0.126489,-44.855923,1.344681,2.036989
1039,-0.886889,0.008516,-0.801686,-1.038016,0.032525,0.133716,-37.806183,3.421754,2.414733
1040,-0.879933,0.008516,-0.796522,-1.042834,0.016463,0.13452,-33.085495,3.295839,3.673583
1041,-0.898483,0.015816,-0.793941,-1.03641,0.011645,0.117654,-27.987062,1.722276,3.421754
1042,-0.898483,0.015816,-0.793941,-1.041228,0.013252,0.165037,-28.490574,2.981126,2.603531
1043,-0.879933,0.015816,-0.80685,-1.009906,0.028509,0.132111,-33.400208,3.358871,2.603531
1044,-0.882252,0.023115,-0.788777,-1.060503,0.030918,0.13452,-40.323883,1.785308,2.351701
1045,-0.889208,0.020682,-0.809432,-1.038819,0.034132,0.125685,-45.233517,2.792329,2.351701
1046,-0.882252,0.020682,-0.814596,-1.040425,-0.002008,0.135323,-38.246811,3.484786,3.107041
1047,-0.891526,0.023115,-0.840415,-1.033999,-0.008432,0.167448,-30.945391,2.540499,2.666414
1048,-0.882252,0.030415,-0.832669,-1.013119,0.022085,0.140945,-25.217533,2.792329,3.421754
1049,-0.882252,0.030415,-0.832669,-1.049258,0.019676,0.152189,-22.448004,3.232956,2.981126
1050,-0.879933,0.030415,-0.837833,-1.028379,0.022887,0.119261,-20.559729,3.862381,3.484786
1051,-0.879933,0.030415,-0.822342,-1.04685,0.034934,0.119261,-24.399162,3.295839,3.547668
1052,-0.891526,0.045014,-0.804268,-1.032394,-0.000401,0.120867,-34.533142,2.603531,2.792329
1053,-0.886889,0.052313,-0.824924,-1.042834,0.001204,0.14978,-45.988857,3.610551,2.918243
1054,-0.884571,0.042581,-0.832669,-1.035606,0.042162,0.087939,-59.081013,3.107041,2.729446
1055,-0.884571,0.042581,-0.832669,-1.044441,0.00763,0.136929,-66.382584,3.610551,2.666414
1056,-0.884571,0.059613,-0.835251,-1.066927,0.040556,0.116852,-63.550026,1.785308,1.596361
1057,-0.889208,0.076645,-0.830087,-1.005891,0.006826,0.138536,-56.752117,0.400543,3.799498
1058,-0.889208,0.079078,-0.835251,-1.044441,0.014054,0.131307,-43.21933,3.295839,2.288818
1059,-0.886889,0.086378,-0.822342,-1.020348,0.004417,0.162628,-39.946289,5.373061,1.848191
1060,-0.891526,0.081511,-0.837833,-1.021953,0.010841,0.1554,-30.819473,2.477616,1.722276
1061,-0.891526,0.093677,-0.824924,-1.024363,0.019676,0.130505,-27.861149,1.155883,2.540499
1062,-0.891526,0.093677,-0.824924,-1.062109,0.044571,0.150582,-27.546436,4.491806,3.295839
1063,-0.891526,0.091244,-0.853325,-1.042834,0.030116,0.12167,-29.686541,3.484786,3.547668
1064,-0.884571,0.083944,-0.822342,-1.037212,0.028509,0.130505,-35.980789,1.848191,3.044158
1065,-0.882252,0.093677,-0.837833,-1.049258,0.015661,0.174675,-40.638596,1.911074,1.596361
1066,-0.884571,0.098543,-0.850743,-1.033999,0.015661,0.148173,-38.939117,7.387251,1.533478
1067,-0.882252,0.115576,-0.830087,-1.017135,-0.000401,0.140945,-35.540165,2.414733,2.792329
1068,-0.882252,0.115576,-0.830087,-1.025166,0.021283,0.150582,-27.798117,1.848191,3.170073
1069,-0.884571,0.105843,-0.848161,-1.026772,0.011645,0.120065,-27.798117,4.617721,2.666414
1070,-0.879933,0.110709,-0.842997,-1.034803,0.021283,0.11123,-22.384972,3.610551,3.421754
1071,-0.877614,0.120442,-0.848161,-1.03159,0.023692,0.157006,-20.056068,1.785308,4.554689
1072,-0.879933,0.113142,-0.868816,-1.025166,-0.000401,0.110427,-18.923134,2.792329,4.365891
1073,-0.877614,0.130175,-0.86107,-1.018741,0.022085,0.152189,-19.741356,4.617721,2.540499
1074,-0.875296,0.127741,-0.866234,-1.033999,0.030918,0.116852,-23.455025,3.799498,2.981126
1075,-0.875296,0.127741,-0.866234,-1.048456,-0.002008,0.150582,-25.343449,2.666414,3.421754
1076,-0.886889,0.132608,-0.853325,-1.025968,0.011645,0.136127,-25.783926,3.232956,3.107041
1077,-0.882252,0.125308,-0.876562,-1.024363,0.034934,0.123276,-23.832767,4.365891,3.170073
1078,-0.882252,0.125308,-0.876562,-1.042032,0.012448,0.113639,-29.434711,4.932433,2.729446
1079,-0.879933,0.135041,-0.863652,-1.009906,0.034934,0.108017,-28.427542,1.596361,2.918243
1080,-0.879933,0.137474,-0.871398,-1.035606,0.009234,0.141749,-27.357637,3.547668,3.358871
1081,-0.879933,0.137474,-0.871398,-1.042032,0.01807,0.110427,-22.384972,3.736466,3.484786
1082,-0.879933,0.154506,-0.853325,-1.038016,0.025298,0.102396,-22.448004,4.491806,3.862381
1083,-0.875296,0.147207,-0.87398,-1.033197,0.029314,0.138536,-27.92403,1.596361,3.170073
1084,-0.879933,0.152073,-0.868816,-1.050865,0.010841,0.148975,-33.525974,3.547668,2.288818
1085,-0.900801,0.164239,-0.876562,-1.025968,0.026903,0.144158,-36.16959,3.044158,2.792329
1086,-0.891526,0.159373,-0.855907,-1.025968,0.023692,0.166644,-33.400208,2.729446,3.862381
1087,-0.893845,0.161806,-0.866234,-1.051667,0.030918,0.11123,-31.511786,3.170073,3.044158
1088,-0.893845,0.161806,-0.866234,-1.033197,0.024494,0.108017,-27.168692,3.044158,2.603531
1089,-0.886889,0.173972,-0.886889,-1.029984,0.000401,0.128096,-26.413351,2.540499,3.107041
1090,-0.882252,0.166672,-0.855907,-1.038016,0.000401,0.13452,-25.280416,3.610551,2.414733
1091,-0.875296,0.186138,-0.863652,-1.013922,-0.000401,0.123276,-29.057114,3.232956,2.351701
1092,-0.879933,0.188571,-0.884308,-1.03641,0.011645,0.140142,-32.644867,3.044158,3.044158
1093,-0.875296,0.176405,-0.87398,-1.039621,0.038147,0.125685,-30.127018,3.107041,4.114211
1094,-0.879933,0.183704,-0.853325,-1.033999,0.018872,0.118458,-29.057114,2.981126,3.610551
1095,-0.879933,0.183704,-0.853325,-1.021953,0.014856,0.133716,-31.260103,2.162904,2.855361
1096,-0.872977,0.193437,-0.853325,-1.025968,0.015661,0.14978,-32.518951,3.547668,2.981126
1097,-0.875296,0.200736,-0.87398,-1.026772,0.020479,0.122474,-33.903717,2.414733,2.855361
1098,-0.872977,0.200736,-0.879144,-1.061305,0.011645,0.113639,-32.39304,4.177094,3.107041
1099,-0.877614,0.200736,-0.894635,-1.032394,0.022085,0.112032,-28.238743,3.044158,3.610551
1100,-0.882252,0.208036,-0.87398,-1.035606,0.011645,0.120065,-24.713875,1.785308,3.799498
1101,-0.882252,0.208036,-0.87398,-1.033197,0.014054,0.135323,-19.804388,3.673583,2.855361
1102,-0.875296,0.222635,-0.850743,-1.035606,0.029314,0.130505,-22.762716,4.995317,3.547668
1103,-0.879933,0.217769,-0.87398,-1.042032,0.008432,0.126489,-28.364658,2.414733,2.981126
1104,-0.884571,0.225068,-0.879144,-1.024363,0.011645,0.119261,-36.043823,2.288818,3.044158
1105,-0.877614,0.217769,-0.881726,-1.055683,0.030116,0.145764,-39.379745,4.869551,2.477616
1106,-0.889208,0.237234,-0.87398,-1.060503,0.030918,0.144158,-36.610214,2.666414,3.484786
1107,-0.879933,0.244534,-0.904963,-1.051667,0.00763,0.1297,-36.23262,1.911074,3.736466
1108,-0.879933,0.244534,-0.904963,-1.025166,-0.002008,0.118458,-29.875336,5.184263,2.414733
1109,-0.882252,0.244534,-0.866234,-1.035606,0.00281,0.120867,-25.595129,3.044158,2.540499
1110,-0.877614,0.251833,-0.881726,-1.029984,0.009234,0.131307,-20.181984,2.792329,3.232956
1111,-0.882252,0.259133,-0.910127,-1.041228,0.020479,0.132914,-19.237846,3.736466,3.358871
1112,-0.877614,0.259133,-0.863652,-1.041228,0.032525,0.154598,-19.363762,3.925264,4.365891
1113,-0.886889,0.271299,-0.858489,-1.034803,0.022085,0.126489,-17.538368,2.036989,4.051179
1114,-0.886889,0.271299,-0.858489,-1.035606,0.00763,0.144158,-16.279518,2.351701,3.484786
1115,-0.886889,0.266432,-0.863652,-1.020348,0.014856,0.138536,-15.209465,3.925264,2.729446
1116,-0.877614,0.268865,-0.868816,-1.029181,0.015661,0.136929,-17.664284,3.547668,2.288818
1117,-0.884571,0.273732,-0.892054,-1.034803,0.006023,0.148975,-13.447105,3.988296,2.666414
1118,-0.884571,0.268865,-0.871398,-1.024363,0.019676,0.140945,-13.195276,1.659393,3.358871
1119,-0.884571,0.281031,-0.879144,-1.040425,0.032525,0.13452,-7.970929,3.170073,3.799498
1120,-0.879933,0.281031,-0.863652,-1.037212,0.011645,0.137733,-6.649196,4.806519,4.428923
1121,-0.879933,0.281031,-0.863652,-1.037212,0.023692,0.1297,-7.530451,3.044158,4.806519
1122,-0.882252,0.285898,-0.879144,-1.023559,0.035738,0.119261,-11.55883,2.414733,5.373061
1123,-0.882252,0.283464,-0.904963,-1.042834,-0.001205,0.133716,-18.545538,2.918243,4.554689
1124,-0.882252,0.283464,-0.886889,-1.044441,-0.005221,0.141749,-22.573917,2.918243,3.610551
1125,-0.877614,0.283464,-0.881726,-1.03641,0.014054,0.140142,-21.944492,3.421754,3.484786
1126,-0.872977,0.288331,-0.876562,-1.032394,0.004417,0.132914,-24.588108,5.247146,3.547668
1127,-0.872977,0.288331,-0.876562,-1.041228,0.022887,0.142551,-23.832767,1.659393,2.792329
1128,-0.893845,0.283464,-0.879144,-1.038819,0.011645,0.131307,-20.622612,3.547668,2.414733
1129,-0.886889,0.29563,-0.892054,-1.025166,0.009234,0.120867,-17.160774,4.365891,3.232956
1130,-0.882252,0.298063,-0.863652,-1.03159,0.01807,0.120065,-15.712976,3.044158,3.421754
1131,-0.889208,0.315096,-0.868816,-1.033999,0.015661,0.136929,-14.139414,2.603531,3.421754
1132,-0.872977,0.298063,-0.850743,-1.033197,0.021283,0.128898,-15.838891,3.232956,3.673583
1133,-0.879933,0.310229,-0.868816,-1.006695,-0.002008,0.116049,-20.181984,1.722276,2.666414
1134,-0.879933,0.310229,-0.868816,-1.026772,0.021283,0.128898,-25.280416,3.107041,2.225786
1135,-0.877614,0.30293,-0.884308,-1.032394,0.025298,0.126489,-32.959579,3.862381,2.603531
1136,-0.877614,0.300496,-0.871398,-1.058896,-0.002008,0.124883,-29.371828,2.288818,2.855361
1137,-0.879933,0.310229,-0.871398,-1.041228,0.043769,0.114443,-26.66518,2.036989,3.610551
1138,-0.882252,0.312662,-0.876562,-1.038016,0.004417,0.157811,-33.148376,3.547668,2.855361
1139,-0.877614,0.319962,-0.876562,-1.020348,0.006023,0.116852,-34.533142,2.162904,2.666414
1140,-0.882252,0.329695,-0.850743,-1.013922,0.009234,0.147369,-25.532246,2.100021,2.666414
1141,-0.882252,0.329695,-0.850743,-1.03159,0.010039,0.154598,-25.532246,4.365891,2.100021
1142,-0.889208,0.322395,-0.868816,-1.013922,0.013252,0.133716,-19.867271,4.554689,1.848191
1143,-0.882252,0.336994,-0.866234,-1.025968,0.01807,0.128898,-19.615591,2.414733,3.044158
1144,-0.879933,0.336994,-0.866234,-1.052472,0.006826,0.139338,-23.140312,2.288818,3.799498
1145,-0.872977,0.332128,-0.87398,-1.033999,0.008432,0.115245,-26.853979,4.617721,2.918243
1146,-0.877614,0.339427,-0.86107,-1.04685,0.029314,0.116852,-28.679371,2.729446,3.295839
1147,-0.877614,0.339427,-0.86107,-1.037212,-0.001205,0.136929,-30.190052,1.596361,1.974106
1148,-0.877614,0.336994,-0.889472,-1.009104,0.028509,0.139338,-35.854877,0.589341,2.603531
1149,-0.886889,0.346727,-0.855907,-1.03159,0.026101,0.136929,-37.176758,5.687773,3.673583
1150,-0.875296,0.356459,-0.863652,-1.055683,0.018872,0.120867,-30.567644,3.170073,3.170073
1151,-0.877614,0.356459,-0.863652,-1.033197,0.038147,0.10079,-31.4489,1.533478,3.421754
1152,-0.866021,0.371059,-0.845579,-1.025968,-0.002812,0.185919,-33.337177,2.855361,3.988296
1153,-0.872977,0.373492,-0.868816,-1.02115,0.018872,0.120867,-29.182882,6.002486,4.114211
1154,-0.872977,0.373492,-0.868816,-1.039621,0.008432,0.145764,-27.798117,4.239976,3.358871
1155,-0.879933,0.361326,-0.884308,-1.014726,0.00281,0.140142,-23.706854,-0.480711,4.051179
1156,-0.86834,0.375925,-0.855907,-1.033999,0.000401,0.150582,-11.118203,2.477616,4.239976
1157,-0.875296,0.383224,-0.86107,-1.056487,0.020479,0.116049,-7.341504,6.065369,2.603531
1158,-0.86834,0.373492,-0.868816,-1.030788,0.058224,0.112032,-15.209465,2.225786,3.421754
1159,-0.875296,0.371059,-0.853325,-1.017937,0.029314,0.101592,-22.636801,3.170073,3.421754
1160,-0.875296,0.371059,-0.853325,-1.03641,0.033329,0.128898,-35.099686,2.540499,3.170073
1161,-0.879933,0.371059,-0.894635,-1.032394,0.000401,0.131307,-33.148376,1.344681,2.792329
1162,-0.872977,0.388091,-0.876562,-1.041228,0.002008,0.132111,-22.88863,5.184263,2.288818
1163,-0.877614,0.405123,-0.871398,-1.03159,0.010841,0.104805,-24.14748,4.806519,3.421754
1164,-0.86834,0.390524,-0.871398,-1.042032,-0.006023,0.152991,-27.609318,0.526309,2.855361
1165,-0.875296,0.397823,-0.842997,-1.03159,-0.000401,0.133716,-22.762716,2.918243,3.925264
1166,-0.86834,0.405123,-0.850743,-1.029181,0.01807,0.12167,-22.133291,5.876571,3.799498
1167,-0.86834,0.405123,-0.850743,-1.020348,0.004417,0.114443,-26.161671,1.218766,2.918243
1168,-0.866021,0.40269,-0.850743,-1.020348,0.013252,0.159415,-33.71492,2.351701,2.981126
1169,-0.875296,0.422155,-0.879144,-1.026772,-0.006827,0.157811,-31.952412,4.365891,2.792329
1170,-0.872977,0.414856,-0.863652,-1.046047,0.034934,0.104001,-33.400208,3.799498,3.170073
1171,-0.877614,0.414856,-0.866234,-1.06532,0.017267,0.140945,-38.246811,2.351701,2.351701
1172,-0.86834,0.412422,-0.879144,-1.033999,-0.001205,0.142551,-34.092514,3.232956,3.107041
1173,-0.86834,0.412422,-0.879144,-1.035606,0.021283,0.166644,-36.547333,3.673583,4.114211
1174,-0.875296,0.424588,-0.855907,-1.015528,0.004417,0.103199,-34.596027,4.114211,4.051179
1175,-0.86834,0.424588,-0.881726,-1.028379,0.014856,0.144158,-35.162567,1.785308,3.988296
1176,-0.870658,0.427021,-0.845579,-1.043636,0.014856,0.140945,-35.603195,4.932433,2.603531
1177,-0.872977,0.441621,-0.845579,-1.045243,-0.008432,0.118458,-36.421417,2.981126,4.554689
1178,-0.879933,0.446487,-0.892054,-1.025166,0.04136,0.101592,-43.659954,3.295839,3.736466
1179,-0.877614,0.451353,-0.832669,-1.034803,0.000401,0.120867,-49.954205,0.148714,4.114211
1180,-0.877614,0.451353,-0.832669,-1.032394,0.006023,0.154598,-50.898491,3.421754,2.162904
1181,-0.872977,0.453786,-0.863652,-1.038819,0.01807,0.125685,-46.555401,3.610551,2.729446
1182,-0.879933,0.458653,-0.853325,-1.025968,-0.019676,0.092759,-45.862942,4.177094,2.666414
1183,-0.879933,0.461086,-0.853325,-1.046047,0.029314,0.128096,-40.072205,0.148714,2.792329
1184,-0.879933,0.473252,-0.835251,-1.029181,0.022085,0.12408,-26.602299,4.428923,3.044158
1185,-0.879933,0.485418,-0.835251,-1.033999,0.011645,0.126489,-23.832767,3.988296,4.114211
1186,-0.877614,0.482984,-0.824924,-1.042834,0.027707,0.116852,-24.650991,1.596361,2.981126
1187,-0.877614,0.482984,-0.824924,-1.04685,0.035738,0.118458,-26.098639,2.981126,2.918243
1188,-0.884571,0.482984,-0.845579,-1.032394,0.028509,0.116049,-31.197071,4.365891,2.981126
1189,-0.884571,0.487851,-0.842997,-1.041228,0.046178,0.122474,-29.812304,2.918243,3.799498
1190,-0.86834,0.492717,-0.840415,-1.046047,0.013252,0.154598,-22.762716,3.862381,3.862381
1191,-0.884571,0.49515,-0.837833,-1.043636,0.015661,0.151384,-11.684597,2.036989,5.184263
1192,-0.877614,0.492717,-0.835251,-1.021953,0.003614,0.13452,-5.138516,5.058348,3.610551
1193,-0.877614,0.492717,-0.835251,-1.032394,0.018872,0.126489,-2.935529,4.303008,4.177094
1194,-0.877614,0.509749,-0.824924,-1.026772,0.013252,0.125685,-3.879666,2.036989,4.303008
1195,-0.872977,0.509749,-0.842997,-1.033999,0.014054,0.150582,-9.670406,2.477616,3.862381
1196,-0.877614,0.509749,-0.845579,-1.034803,0.021283,0.120867,-14.580041,4.365891,2.792329
1197,-0.879933,0.507316,-0.830087,-1.037212,0.029314,0.115245,-20.748526,3.484786,2.918243
1198,-0.872977,0.507316,-0.855907,-1.042032,0.00763,0.143353,-24.588108,2.225786,3.044158
1199,-0.882252,0.521915,-0.837833,-1.025968,0.014856,0.12167,-29.057114,2.603531,2.540499
1200,-0.882252,0.521915,-0.837833,-1.037212,-0.004417,0.168251,-33.589005,3.295839,2.981126
1201,-0.877614,0.517049,-0.848161,-0.986618,-0.006023,0.120867,-25.091618,4.051179,1.911074
1202,-0.86834,0.534081,-0.845579,-1.001073,-0.003614,0.137733,-17.727167,2.729446,2.225786
1203,-0.877614,0.529215,-0.855907,-1.058896,0.030918,0.13452,-17.286688,2.918243,2.540499
1204,-0.870658,0.524348,-0.835251,-1.053274,-0.00763,0.142551,-24.336279,2.414733,2.477616
1205,-0.879933,0.529215,-0.855907,-1.020348,0.005219,0.120065,-34.092514,1.911074,2.288818
1206,-0.879933,0.529215,-0.855907,-1.033999,0.021283,0.077499,-52.031429,0.904053,2.666414
1207,-0.882252,0.526781,-0.835251,-1.013119,0.019676,0.084728,-62.543003,3.484786,1.911074
1208,-0.879933,0.534081,-0.827505,-1.045243,0.037345,0.072682,-61.850548,3.421754,4.051179
1209,-0.882252,0.551113,-0.840415,-1.055683,-0.01807,0.168251,-60.151073,2.162904,1.659393
1210,-0.877614,0.553546,-0.832669,-1.02115,0.00281,0.104805,-68.837257,0.589341,2.162904
1211,-0.877614,0.558413,-0.812014,-1.029984,-0.022889,0.14496,-66.63427,4.680604,1.659393
1212,-0.875296,0.570579,-0.824924,-1.069336,-0.042967,0.163433,-57.255775,2.540499,1.029968
1213,-0.875296,0.570579,-0.824924,-1.035606,0.104001,0.11123,-41.645767,2.792329,5.184263
1214,-0.877614,0.580311,-0.80685,-1.047652,-0.038149,0.131307,-33.840687,4.932433,3.673583
1215,-0.877614,0.577878,-0.788777,-1.025166,0.006826,0.135323,-38.309692,1.785308,1.911074
1216,-0.877614,0.580311,-0.804268,-1.0083,0.032525,0.115245,-34.155399,2.100021,2.036989
1217,-0.870658,0.587611,-0.788777,-1.017937,-0.003614,0.125685,-30.252934,3.925264,2.225786
1218,-0.872977,0.59491,-0.796522,-1.03159,0.034934,0.124883,-36.043823,1.974106,2.162904
1219,-0.872977,0.59491,-0.796522,-1.012317,0.032525,0.099986,-39.757492,1.659393,2.540499
1220,-0.875296,0.604643,-0.796522,-1.030788,0.024494,0.120065,-40.135086,4.051179,2.288818
1221,-0.86834,0.60221,-0.80685,-1.039621,0.016463,0.118458,-35.854877,3.988296,2.540499
1222,-0.866021,0.60221,-0.799104,-1.028379,-0.012449,0.122474,-40.953308,2.414733,-1.173019
1223,-0.877614,0.609509,-0.773285,-1.034803,0.00281,0.116852,-44.666977,2.036989,0.841171
1224,-0.872977,0.628974,-0.791359,-1.045243,0.033329,0.132914,-39.44278,4.051179,1.911074
1225,-0.891526,0.626541,-0.783613,-1.041228,-0.003614,0.103199,-35.729111,2.792329,2.603531
1226,-0.891526,0.626541,-0.783613,-1.028379,0.006826,0.161022,-40.890427,0.966936,3.358871
1227,-0.891526,0.633841,-0.783613,-1.059698,0.030918,0.144158,-46.429485,2.603531,3.358871
1228,-0.886889,0.638707,-0.768121,-1.042032,0.010841,0.148173,-46.429485,4.177094,3.421754
1229,-0.877614,0.638707,-0.793941,-1.040425,0.010039,0.152189,-42.778702,2.288818,3.232956
1230,-0.882252,0.636274,-0.773285,-1.054078,0.016463,0.120065,-43.534042,1.344681,2.414733
1231,-0.877614,0.658173,-0.765539,-1.067731,-0.010843,0.139338,-47.814251,3.107041,3.232956
1232,-0.879933,0.655739,-0.796522,-1.029181,0.002008,0.139338,-43.974667,3.170073,2.603531
1233,-0.879933,0.655739,-0.796522,-1.03159,0.002008,0.152189,-45.674145,2.414733,2.477616
1234,-0.875296,0.663039,-0.770703,-1.025968,-0.036542,0.123276,-46.30357,1.155883,1.974106
1235,-0.86834,0.663039,-0.762957,-1.069336,0.046178,0.163433,-29.119999,3.421754,2.603531
1236,-0.86834,0.663039,-0.765539,-1.028379,0.006826,0.140142,-19.804388,3.988296,1.407564
1237,-0.875296,0.677638,-0.773285,-1.059698,0.017267,0.123276,-30.567644,4.114211,2.792329
1238,-0.875296,0.687371,-0.747466,-1.058896,0.024494,0.115245,-35.225452,2.414733,0.904053
1239,-0.875296,0.687371,-0.747466,-1.015528,0.024494,0.104805,-46.932995,1.848191,2.729446
1240,-0.875296,0.697103,-0.747466,-1.04685,0.014856,0.088743,-58.577507,2.540499,2.288818
1241,-0.870658,0.687371,-0.742302,-1.066927,-0.000401,0.146567,-60.465782,2.351701,2.100021
1242,-0.875296,0.70197,-0.731974,-1.044441,0.028509,0.128898,-61.598869,1.848191,1.974106
1243,-0.875296,0.711702,-0.729392,-1.020348,-0.016465,0.116852,-56.311638,1.722276,2.100021
1244,-0.882252,0.704403,-0.747466,-1.037212,0.037345,0.116852,-47.751217,3.484786,2.225786
1245,-0.875296,0.719002,-0.747466,-1.046047,0.021283,0.11123,-41.079224,2.792329,2.918243
1246,-0.875296,0.719002,-0.747466,-1.033999,0.029314,0.12167,-35.351364,2.288818,3.484786
1247,-0.882252,0.726301,-0.711319,-1.052472,0.009234,0.107214,-35.540165,2.918243,4.303008
1248,-0.86834,0.721435,-0.726811,-1.058896,0.039754,0.140142,-38.561523,4.114211,3.170073
1249,-0.872977,0.726301,-0.719065,-1.029181,0.046178,0.106412,-42.086391,2.351701,4.806519
1250,-0.870658,0.733601,-0.734556,-1.042032,0.023692,0.112032,-44.47818,3.295839,3.358871
1251,-0.872977,0.736034,-0.713901,-1.064518,0.027707,0.1554,-45.80006,4.617721,2.666414
1252,-0.872977,0.736034,-0.713901,-1.029984,-0.01807,0.151384,-50.835461,1.848191,2.100021
1253,-0.877614,0.745767,-0.711319,-1.009104,0.00281,0.104805,-55.619179,2.729446,1.848191
1254,-0.866021,0.745767,-0.711319,-1.038016,-0.009236,0.140142,-59.332851,3.232956,1.911074
1255,-0.872977,0.753066,-0.703573,-1.039621,-0.003614,0.119261,-61.095211,2.351701,0.526309
1256,-0.870658,0.762799,-0.690664,-0.979389,0.120867,0.156204,-60.780495,3.799498,3.358871
1257,-0.875296,0.765232,-0.688082,-1.041228,0.020479,0.125685,-61.535839,-5.453229,4.303008
1258,-0.877614,0.777398,-0.695827,-1.089415,-0.059831,0.128096,-65.627251,7.387251,3.484786
1259,-0.877614,0.777398,-0.695827,-1.049258,0.022887,0.136127,-61.032326,6.191283,0.400543
1260,-0.872977,0.779831,-0.680336,-1.016332,-0.010843,0.105608,-51.024258,-3.439039,1.281649
1261,-0.877614,0.79443,-0.695827,-1.0083,-0.02048,0.147369,-40.072205,-0.858307,2.288818
1262,-0.872977,0.787131,-0.677754,-1.025166,0.024494,0.136127,-35.854877,6.569028,1.974106
1263,-0.879933,0.80173,-0.680336,-1.064518,0.011645,0.112032,-37.680267,5.121231,3.358871
1264,-0.875296,0.784697,-0.664844,-1.038016,0.030116,0.112032,-40.261002,1.911074,2.036989
1265,-0.875296,0.784697,-0.664844,-1.03159,0.012448,0.1554,-45.233517,1.533478,2.603531
1266,-0.875296,0.809029,-0.662263,-1.06532,0.013252,0.116049,-43.596924,4.869551,1.722276
1267,-0.86834,0.804163,-0.649353,-1.042834,0.037345,0.1297,-42.401104,2.477616,2.918243
1268,-0.875296,0.806596,-0.631279,-1.055683,-0.002812,0.145764,-42.967499,2.666414,5.247146
1269,-0.889208,0.811462,-0.651935,-1.03641,0.009234,0.168251,-41.205139,2.414733,5.373061
1270,-0.879933,0.811462,-0.644189,-1.021953,-0.045376,0.146567,-41.079224,2.100021,3.044158
1271,-0.884571,0.806596,-0.610624,-1.013119,0.035738,0.125685,-33.400208,3.232956,2.603531
1272,-0.884571,0.806596,-0.610624,-1.046047,0.012448,0.16022,-27.042925,0.148714,3.547668
1273,-0.872977,0.818762,-0.633861,-1.044441,0.011645,0.140142,-22.196175,2.918243,3.799498
1274,-0.884571,0.818762,-0.641607,-1.04685,0.017267,0.116852,-22.322088,4.617721,3.232956
1275,-0.884571,0.813896,-0.641607,-1.028379,0.019676,0.11123,-26.413351,1.596361,2.225786
1276,-0.879933,0.816329,-0.633861,-1.044441,-0.024496,0.132914,-31.637699,2.918243,1.785308
1277,-0.886889,0.828494,-0.587387,-1.044441,0.00763,0.140945,-30.882359,4.114211,2.603531
1278,-0.886889,0.826061,-0.600296,-1.044441,-0.005221,0.1297,-29.119999,2.100021,1.722276
1279,-0.886889,0.826061,-0.600296,-1.014726,0.014054,0.120867,-30.252934,1.974106,1.533478
1280,-0.879933,0.828494,-0.613206,-1.022757,0.024494,0.131307,-27.987062,3.610551,2.603531
1281,-0.889208,0.833361,-0.600296,-1.025968,0.005219,0.122474,-26.539267,3.107041,2.540499
1282,-0.893845,0.838227,-0.610624,-1.048456,0.010039,0.109623,-28.301775,4.743636,2.603531
1283,-0.891526,0.845527,-0.60546,-1.044441,0.021283,0.1297,-30.378847,1.974106,3.421754
1284,-0.889208,0.838227,-0.60546,-1.020348,0.001204,0.144158,-32.141209,2.918243,4.303008
1285,-0.889208,0.838227,-0.60546,-1.020348,-0.004417,0.117654,-37.050842,3.421754,1.659393
1286,-0.893845,0.835794,-0.608042,-1.044441,0.010841,0.127292,-39.44278,3.925264,1.848191
1287,-0.893845,0.855259,-0.589969,-1.020348,0.014856,0.135323,-37.176758,0.652224,2.414733
1288,-0.884571,0.852826,-0.584805,-1.016332,0.055013,0.137733,-33.903717,2.603531,3.358871
1289,-0.877614,0.855259,-0.564149,-1.044441,-0.050195,0.113639,-36.799164,3.988296,3.610551
1290,-0.877614,0.852826,-0.589969,-1.052472,-0.003614,0.14978,-33.463089,1.659393,2.351701
1291,-0.884571,0.850393,-0.553822,-1.038819,0.018872,0.164235,-25.217533,2.351701,3.421754
1292,-0.884571,0.850393,-0.553822,-1.039621,0.04136,0.156204,-22.322088,3.925264,3.925264
1293,-0.891526,0.860126,-0.597714,-1.050865,0.013252,0.141749,-27.357637,4.932433,4.114211
1294,-0.886889,0.855259,-0.577059,-1.028379,0.009234,0.11123,-32.833664,3.044158,3.044158
1295,-0.900801,0.862559,-0.546076,-1.034803,0.011645,0.103199,-34.721939,1.155883,1.848191
1296,-0.898483,0.864992,-0.571895,-1.04685,0.011645,0.1297,-31.574818,2.603531,1.722276
1297,-0.891526,0.860126,-0.569313,-1.048456,0.023692,0.136929,-24.399162,3.925264,3.421754
1298,-0.891526,0.860126,-0.569313,-1.026772,-0.010039,0.132111,-18.923134,3.170073,4.365891
1299,-0.886889,0.862559,-0.543494,-1.039621,0.00281,0.148173,-14.83187,3.107041,3.170073
1300,-0.891526,0.872292,-0.556404,-1.042834,-0.002812,0.137733,-12.81768,3.547668,3.862381
1301,-0.891526,0.864992,-0.566731,-1.04685,0.017267,0.114443,-11.244118,4.051179,3.358871
1302,-0.893845,0.843094,-0.566731,-1.041228,0.015661,0.126489,-15.838891,3.610551,3.610551
1303,-0.905439,0.867425,-0.530584,-1.030788,0.004417,0.123276,-19.111931,3.421754,3.107041
1304,-0.893845,0.879591,-0.543494,-1.044441,0.015661,0.158613,-21.881462,3.610551,2.855361
1305,-0.893845,0.879591,-0.543494,-1.025968,0.014856,0.137733,-20.181984,3.547668,2.855361
1306,-0.891526,0.862559,-0.525421,-1.045243,0.019676,0.127292,-17.916113,3.295839,3.295839
1307,-0.893845,0.872292,-0.525421,-1.023559,0.010039,0.126489,-15.901924,3.547668,4.303008
1308,-0.896164,0.869859,-0.553822,-1.032394,0.013252,0.147369,-14.642925,3.421754,3.673583
1309,-0.893845,0.860126,-0.55124,-1.035606,0.015661,0.113639,-12.125224,3.044158,3.673583
1310,-0.889208,0.874725,-0.509929,-1.03641,0.016463,0.137733,-13.824701,4.051179,3.044158
1311,-0.891526,0.874725,-0.507347,-1.037212,-0.003614,0.123276,-16.971975,2.540499,2.855361
1312,-0.891526,0.874725,-0.507347,-1.038016,0.009234,0.132914,-18.482506,3.358871,3.232956
1313,-0.891526,0.879591,-0.55124,-1.017135,-0.003614,0.145764,-19.300879,3.358871,3.610551
1314,-0.889208,0.869859,-0.517675,-1.051667,0.010039,0.157811,-17.6014,3.799498,3.170073
1315,-0.886889,0.867425,-0.502183,-1.051667,0.010039,0.110427,-19.237846,3.358871,4.051179
1316,-0.893845,0.89419,-0.543494,-1.03159,-0.002008,0.136929,-18.04188,3.170073,3.547668
1317,-0.90312,0.886891,-0.520257,-1.03641,0.001204,0.12167,-16.594231,3.107041,3.295839
1318,-0.90312,0.886891,-0.520257,-1.019544,0.013252,0.135323,-17.475487,4.177094,2.918243
1319,-0.886889,0.884457,-0.517675,-1.025166,0.002008,0.145764,-20.811409,3.421754,2.918243
1320,-0.893845,0.89419,-0.535748,-1.023559,-0.002008,0.136127,-19.678474,1.974106,3.358871
1321,-0.893845,0.879591,-0.522839,-1.03159,0.008432,0.132914,-17.475487,3.232956,3.799498
1322,-0.893845,0.89419,-0.507347,-1.032394,-0.010039,0.12408,-14.580041,3.358871,3.421754
1323,-0.886889,0.889324,-0.507347,-1.033999,0.001204,0.145764,-12.062341,3.295839,3.170073
1324,-0.889208,0.882024,-0.520257,-1.038016,0.015661,0.11123,-14.07653,2.666414,3.610551
1325,-0.889208,0.882024,-0.520257,-1.026772,0.028509,0.136127,-13.635903,3.358871,4.051179
1326,-0.896164,0.884457,-0.499601,-1.038016,0.01807,0.116049,-19.049049,3.107041,3.295839
1327,-0.891526,0.884457,-0.499601,-1.057289,0.006023,0.131307,-18.04188,3.170073,3.862381
1328,-0.889208,0.889324,-0.499601,-1.035606,0.022085,0.104805,-16.846062,2.477616,2.981126
1329,-0.900801,0.89419,-0.522839,-1.029181,0.002008,0.122474,-17.160774,3.988296,3.107041
1330,-0.907757,0.877158,-0.512511,-1.028379,0.006023,0.123276,-16.971975,3.044158,3.170073
1331,-0.907757,0.877158,-0.512511,-1.033197,-0.001205,0.133716,-17.160774,2.540499,3.484786
1332,-0.893845,0.884457,-0.476364,-1.026772,-0.008432,0.148975,-18.923134,3.295839,3.799498
1333,-0.896164,0.896623,-0.476364,-1.027575,0.012448,0.116852,-21.126122,3.421754,2.918243
1334,-0.886889,0.882024,-0.473782,-1.044441,0.021283,0.115245,-26.853979,2.603531,2.036989
1335,-0.886889,0.882024,-0.478946,-1.029181,-0.001205,0.10079,-32.141209,2.162904,3.107041
1336,-0.882252,0.886891,-0.463455,-1.033197,0.006826,0.135323,-35.036652,3.610551,2.100021
1337,-0.893845,0.89419,-0.486692,-1.046047,-0.002812,0.128096,-37.554352,3.610551,3.044158
1338,-0.893845,0.89419,-0.486692,-1.028379,0.009234,0.091152,-40.890427,2.100021,2.666414
1339,-0.896164,0.90149,-0.468618,-1.026772,-0.057422,0.148173,-37.365555,3.170073,4.365891
1340,-0.879933,0.896623,-0.476364,-1.058896,0.010039,0.144158,-34.533142,3.799498,0.526309
1341,-0.896164,0.903923,-0.458291,-1.057289,0.011645,0.133716,-36.358536,3.295839,1.911074
1342,-0.879933,0.896623,-0.466036,-1.050063,-0.013252,0.133716,-37.428589,3.547668,4.428923
