Sequence,Geo-X,Geo-Y,Geo-Z,Acc-X,Acc-Y,Acc-Z,Gyro-X,Gyro-Y,Gyro-z
2,0.90312,-0.984217,-0.610624,-0.057422,-0.952885,0.137733,0.904053,3.358871,4.177094
3,0.900801,-0.981784,-0.610624,-0.054211,-0.951281,0.148173,1.155883,3.484786,3.988296
4,0.90312,-0.981784,-0.628698,-0.053407,-0.964934,0.156204,1.092851,3.484786,4.303008
5,0.898483,-0.981784,-0.615788,-0.059029,-0.954492,0.147369,1.029968,3.547668,4.114211
6,0.90312,-0.989084,-0.60546,-0.055013,-0.955296,0.140142,1.092851,3.484786,4.428923
7,0.90312,-0.989084,-0.60546,-0.058226,-0.954492,0.150582,1.155883,3.547668,4.114211
8,0.896164,-0.974484,-0.626116,-0.061437,-0.954492,0.176281,1.092851,3.925264,4.239976
9,0.896164,-0.972052,-0.620952,-0.060635,-0.958507,0.127292,1.281649,3.547668,4.428923
10,0.889208,-0.967185,-0.626116,-0.04618,-0.959312,0.153795,1.344681,3.044158,4.365891
11,0.893845,-0.976918,-0.636443,-0.046982,-0.960114,0.161022,1.281649,3.862381,4.239976
12,0.898483,-0.979351,-0.615788,-0.057422,-0.944854,0.138536,1.533478,3.610551,4.114211
13,0.898483,-0.979351,-0.615788,-0.063044,-0.960918,0.162628,1.344681,3.610551,4.114211
14,0.893845,-0.989084,-0.631279,-0.054211,-0.94887,0.162628,1.470596,3.799498,4.491806
15,0.900801,-0.972052,-0.613206,-0.05662,-0.954492,0.14978,1.218766,3.736466,4.303008
16,0.905439,-0.967185,-0.623534,-0.050195,-0.94887,0.143353,1.344681,3.673583,4.239976
17,0.898483,-0.969618,-0.631279,-0.061437,-0.94887,0.157006,1.722276,3.799498,4.114211
18,0.905439,-0.967185,-0.626116,-0.059029,-0.956098,0.136929,1.281649,3.358871,4.554689
19,0.889208,-0.964752,-0.628698,-0.055815,-0.952885,0.161826,1.533478,3.358871,4.680604
20,0.889208,-0.964752,-0.628698,-0.058226,-0.949674,0.125685,1.155883,3.988296,4.428923
21,0.900801,-0.972052,-0.608042,-0.042164,-0.952885,0.156204,1.407564,3.484786,4.365891
22,0.900801,-0.969618,-0.636443,-0.049391,-0.95369,0.176281,1.596361,3.484786,4.428923
23,0.893845,-0.974484,-0.644189,-0.052604,-0.962523,0.148975,1.092851,3.484786,4.051179
24,0.898483,-0.976918,-0.636443,-0.042164,-0.954492,0.140945,1.092851,3.799498,4.365891
25,0.898483,-0.979351,-0.631279,-0.049391,-0.957705,0.175479,1.344681,3.925264,4.554689
26,0.898483,-0.979351,-0.631279,-0.0518,-0.960114,0.132111,1.281649,3.358871,4.554689
27,0.889208,-0.972052,-0.626116,-0.053407,-0.960918,0.156204,1.470596,3.547668,4.428923
28,0.900801,-0.967185,-0.61837,-0.053407,-0.960918,0.141749,1.218766,3.799498,4.114211
29,0.898483,-0.967185,-0.610624,-0.059029,-0.950476,0.148173,1.533478,3.610551,4.365891
30,0.905439,-0.964752,-0.641607,-0.059029,-0.94887,0.139338,0.966936,3.232956,4.051179
31,0.886889,-0.974484,-0.60546,-0.049391,-0.95369,0.136929,0.904053,3.610551,3.925264
32,0.889208,-0.967185,-0.620952,-0.048589,-0.960114,0.130505,1.344681,3.170073,4.428923
33,0.889208,-0.967185,-0.620952,-0.054211,-0.94887,0.1554,1.029968,3.421754,4.554689
34,0.898483,-0.967185,-0.613206,-0.046982,-0.957705,0.14978,1.470596,3.295839,4.365891
35,0.898483,-0.967185,-0.639025,-0.0518,-0.956098,0.159415,1.029968,3.421754,4.680604
36,0.896164,-0.972052,-0.623534,-0.055815,-0.946461,0.166644,0.904053,3.421754,4.239976
37,0.90312,-0.976918,-0.620952,-0.060635,-0.960114,0.142551,1.407564,3.358871,4.869551
38,0.90312,-0.972052,-0.60546,-0.050998,-0.955296,0.156204,1.596361,3.610551,4.177094
39,0.90312,-0.972052,-0.60546,-0.063044,-0.950476,0.170659,1.659393,3.358871,4.303008
40,0.898483,-0.979351,-0.636443,-0.05662,-0.944052,0.170659,1.281649,3.610551,4.365891
41,0.896164,-0.967185,-0.628698,-0.052604,-0.959312,0.179495,1.092851,3.673583,3.988296
42,0.893845,-0.967185,-0.623534,-0.05662,-0.957705,0.151384,1.029968,3.421754,4.114211
43,0.893845,-0.972052,-0.597714,-0.052604,-0.944854,0.140945,1.407564,3.736466,4.365891
44,0.889208,-0.984217,-0.623534,-0.055815,-0.951281,0.135323,0.904053,3.295839,4.869551
45,0.905439,-0.986651,-0.615788,-0.053407,-0.954492,0.152991,1.407564,3.358871,4.303008
46,0.905439,-0.986651,-0.615788,-0.067864,-0.95369,0.162628,1.155883,3.547668,4.239976
47,0.893845,-0.974484,-0.639025,-0.04618,-0.96172,0.135323,1.281649,3.421754,4.617721
48,0.900801,-0.979351,-0.644189,-0.061437,-0.948067,0.173873,1.533478,3.547668,4.239976
49,0.889208,-0.986651,-0.61837,-0.061437,-0.954492,0.152991,1.281649,3.547668,4.806519
50,0.893845,-0.989084,-0.641607,-0.052604,-0.956901,0.152189,1.344681,4.428923,4.303008
51,0.893845,-0.969618,-0.615788,-0.053407,-0.952083,0.151384,1.281649,3.295839,4.303008
52,0.907757,-0.969618,-0.613206,-0.059831,-0.957705,0.143353,1.281649,3.799498,4.365891
53,0.907757,-0.969618,-0.613206,-0.05662,-0.952083,0.161022,1.722276,3.610551,4.428923
54,0.898483,-0.984217,-0.600296,-0.055013,-0.944854,0.161826,1.281649,3.610551,4.554689
55,0.889208,-0.979351,-0.636443,-0.055013,-0.955296,0.150582,0.966936,3.170073,3.925264
56,0.896164,-0.979351,-0.644189,-0.058226,-0.946461,0.140945,1.281649,3.736466,4.428923
57,0.900801,-0.972052,-0.620952,-0.042967,-0.941643,0.158613,1.155883,3.107041,4.177094
58,0.898483,-0.972052,-0.623534,-0.053407,-0.942445,0.170659,1.470596,3.673583,3.736466
59,0.898483,-0.972052,-0.623534,-0.055013,-0.949674,0.143353,1.281649,3.484786,4.365891
60,0.896164,-0.974484,-0.61837,-0.061437,-0.952083,0.148975,1.155883,3.736466,4.806519
61,0.893845,-0.974484,-0.608042,-0.050195,-0.957705,0.159415,0.904053,3.673583,4.365891
62,0.912395,-0.969618,-0.615788,-0.049391,-0.942445,0.140945,1.533478,3.799498,4.303008
63,0.900801,-0.989084,-0.626116,-0.0518,-0.957705,0.16022,1.344681,3.610551,4.554689
64,0.907757,-0.981784,-0.641607,-0.048589,-0.952885,0.1554,1.344681,3.925264,4.177094
65,0.910076,-0.974484,-0.620952,-0.057422,-0.948067,0.148975,0.966936,3.232956,4.428923
66,0.910076,-0.974484,-0.620952,-0.0518,-0.958507,0.142551,1.281649,3.736466,4.303008
67,0.898483,-0.974484,-0.623534,-0.055815,-0.959312,0.146567,1.218766,3.610551,4.554689
68,0.900801,-0.981784,-0.613206,-0.058226,-0.964934,0.161022,1.155883,3.673583,4.114211
69,0.900801,-0.974484,-0.631279,-0.044573,-0.954492,0.147369,1.092851,3.610551,4.428923
70,0.891527,-0.974484,-0.61837,-0.060635,-0.952083,0.148173,1.407564,3.484786,4.680604
71,0.905439,-0.972052,-0.633861,-0.058226,-0.94887,0.150582,1.533478,3.736466,4.303008
72,0.905439,-0.972052,-0.633861,-0.0518,-0.944052,0.14978,1.029968,3.484786,4.617721
73,0.907757,-0.974484,-0.633861,-0.059831,-0.940037,0.151384,1.533478,3.547668,4.428923
74,0.900801,-0.979351,-0.636443,-0.063044,-0.945659,0.148173,1.344681,3.610551,4.114211
75,0.891527,-0.976918,-0.649353,-0.05662,-0.955296,0.150582,1.218766,3.358871,4.303008
76,0.896164,-0.972052,-0.623534,-0.057422,-0.958507,0.175479,1.155883,3.925264,5.310029
77,0.907757,-0.981784,-0.639025,-0.058226,-0.952083,0.1554,1.155883,3.736466,4.303008
78,0.900801,-0.972052,-0.646771,-0.0518,-0.950476,0.162628,0.904053,3.170073,4.617721
79,0.900801,-0.972052,-0.646771,-0.050195,-0.945659,0.151384,1.344681,3.673583,4.554689
80,0.900801,-0.969618,-0.631279,-0.055815,-0.952885,0.177084,1.218766,3.925264,4.428923
81,0.907757,-0.974484,-0.608042,-0.058226,-0.962523,0.158613,1.344681,3.799498,4.177094
82,0.910076,-0.969618,-0.608042,-0.057422,-0.952083,0.158613,1.344681,3.610551,4.239976
83,0.896164,-0.976918,-0.639025,-0.054211,-0.948067,0.175479,1.596361,3.673583,4.428923
84,0.905439,-0.974484,-0.60546,-0.055815,-0.948067,0.16022,1.596361,3.673583,4.428923
85,0.905439,-0.974484,-0.60546,-0.060635,-0.957705,0.143353,1.533478,3.421754,5.121231
86,0.907757,-0.984217,-0.61837,-0.049391,-0.957705,0.161022,1.281649,3.736466,4.428923
87,0.90312,-0.976918,-0.613206,-0.059831,-0.95369,0.151384,1.155883,3.170073,4.303008
88,0.886889,-0.974484,-0.615788,-0.050195,-0.955296,0.145764,0.966936,3.673583,4.365891
89,0.898483,-0.976918,-0.641607,-0.057422,-0.956901,0.152991,1.281649,3.358871,4.554689
90,0.893845,-0.976918,-0.631279,-0.055013,-0.94887,0.161826,1.155883,3.547668,4.303008
91,0.882252,-0.979351,-0.60546,-0.050998,-0.960918,0.164235,1.596361,3.736466,4.680604
92,0.882252,-0.979351,-0.60546,-0.050195,-0.96172,0.142551,1.155883,3.799498,4.303008
93,0.886889,-0.989084,-0.626116,-0.048589,-0.939234,0.162628,1.533478,3.484786,4.491806
94,0.889208,-0.972052,-0.623534,-0.052604,-0.945659,0.138536,1.281649,3.547668,4.303008
95,0.893845,-0.972052,-0.639025,-0.055815,-0.952885,0.147369,1.722276,3.673583,4.303008
96,0.898483,-0.969618,-0.61837,-0.062242,-0.959312,0.169053,1.533478,3.421754,4.680604
97,0.889208,-0.986651,-0.620952,-0.059029,-0.948067,0.140945,1.407564,3.421754,4.617721
98,0.889208,-0.986651,-0.620952,-0.071879,-0.944052,0.163433,1.344681,3.925264,4.239976
99,0.896164,-0.979351,-0.615788,-0.048589,-0.956901,0.173873,1.218766,3.673583,4.428923
100,0.886889,-0.984217,-0.608042,-0.049391,-0.951281,0.16022,1.407564,3.736466,4.365891
101,0.898483,-0.976918,-0.657099,-0.050998,-0.960918,0.188328,1.722276,3.610551,4.177094
102,0.896164,-0.989084,-0.60546,-0.05662,-0.960918,0.166644,1.092851,3.610551,4.239976
103,0.891527,-0.976918,-0.633861,-0.055815,-0.949674,0.120867,1.218766,3.610551,4.303008
104,0.893845,-0.969618,-0.61837,-0.059029,-0.94887,0.151384,1.659393,3.421754,3.925264
105,0.893845,-0.969618,-0.61837,-0.058226,-0.956098,0.147369,1.470596,3.421754,4.617721
106,0.889208,-0.969618,-0.615788,-0.045376,-0.952885,0.148975,1.407564,3.421754,4.177094
107,0.907757,-0.984217,-0.61837,-0.055013,-0.940839,0.167448,1.596361,3.610551,4.051179
108,0.90312,-0.984217,-0.595133,-0.048589,-0.959312,0.16022,1.407564,3.610551,4.806519
109,0.893845,-0.981784,-0.613206,-0.052604,-0.959312,0.184312,1.281649,3.295839,3.925264
110,0.905439,-0.972052,-0.615788,-0.050998,-0.949674,0.14496,1.407564,3.421754,4.239976
111,0.898483,-0.974484,-0.615788,-0.047784,-0.952885,0.131307,1.407564,3.484786,4.806519
112,0.898483,-0.974484,-0.615788,-0.055013,-0.954492,0.171464,1.029968,3.610551,4.114211
113,0.898483,-0.976918,-0.654517,-0.052604,-0.960918,0.143353,1.533478,3.232956,4.428923
114,0.898483,-0.979351,-0.623534,-0.062242,-0.956901,0.150582,1.407564,3.170073,4.239976
115,0.891527,-0.979351,-0.623534,-0.050998,-0.954492,0.1554,1.470596,4.114211,4.177094
116,0.889208,-0.974484,-0.600296,-0.046982,-0.955296,0.177888,1.407564,3.610551,4.114211
117,0.886889,-0.969618,-0.639025,-0.059831,-0.959312,0.163433,1.533478,3.421754,4.365891
118,0.886889,-0.969618,-0.639025,-0.058226,-0.952885,0.154598,1.533478,3.421754,4.617721
119,0.886889,-0.974484,-0.613206,-0.059831,-0.952083,0.150582,1.344681,3.484786,3.988296
120,0.886889,-0.979351,-0.615788,-0.052604,-0.952083,0.135323,1.407564,3.170073,4.617721
121,0.889208,-0.972052,-0.608042,-0.047784,-0.954492,0.156204,1.533478,3.925264,4.114211
122,0.889208,-0.984217,-0.641607,-0.055013,-0.959312,0.144158,1.659393,3.547668,4.239976
123,0.891527,-0.974484,-0.633861,-0.059029,-0.952885,0.158613,1.155883,3.862381,4.491806
124,0.898483,-0.969618,-0.644189,-0.053407,-0.946461,0.16022,1.092851,3.673583,4.491806
125,0.898483,-0.969618,-0.644189,-0.050998,-0.952083,0.145764,1.218766,3.421754,4.680604
126,0.891527,-0.969618,-0.61837,-0.062242,-0.952885,0.135323,1.470596,3.044158,3.925264
127,0.889208,-0.974484,-0.615788,-0.045376,-0.964934,0.150582,1.218766,3.610551,4.239976
128,0.884571,-0.969618,-0.639025,-0.069468,-0.958507,0.169053,1.281649,3.673583,4.617721
129,0.896164,-0.964752,-0.623534,-0.048589,-0.94887,0.162628,1.155883,3.232956,3.925264
130,0.900801,-0.969618,-0.608042,-0.063044,-0.946461,0.153795,1.155883,3.673583,3.988296
131,0.900801,-0.969618,-0.608042,-0.065453,-0.954492,0.165037,1.974106,3.421754,3.799498
132,0.893845,-0.972052,-0.613206,-0.048589,-0.950476,0.139338,1.407564,3.799498,4.303008
133,0.896164,-0.964752,-0.584805,-0.062242,-0.967342,0.148173,1.155883,3.547668,4.239976
134,0.893845,-0.974484,-0.615788,-0.048589,-0.960918,0.150582,1.659393,3.610551,3.925264
135,0.896164,-0.972052,-0.608042,-0.0518,-0.959312,0.165842,1.533478,3.547668,4.743636
136,0.889208,-0.962319,-0.608042,-0.055815,-0.970554,0.154598,1.533478,3.736466,3.925264
137,0.896164,-0.984217,-0.60546,-0.055013,-0.96172,0.146567,1.407564,3.421754,4.303008
138,0.896164,-0.984217,-0.60546,-0.057422,-0.960918,0.143353,1.218766,3.484786,4.177094
139,0.889208,-0.979351,-0.623534,-0.050195,-0.955296,0.164235,1.281649,3.799498,4.680604
140,0.889208,-0.976918,-0.615788,-0.057422,-0.955296,0.161826,1.596361,3.421754,4.239976
141,0.90312,-0.979351,-0.626116,-0.045376,-0.964129,0.125685,1.407564,3.610551,4.365891
142,0.893845,-0.962319,-0.639025,-0.055815,-0.950476,0.152189,1.092851,3.547668,4.554689
143,0.896164,-0.976918,-0.613206,-0.049391,-0.964129,0.157006,1.470596,3.547668,4.617721
144,0.896164,-0.976918,-0.613206,-0.039754,-0.960918,0.157811,1.344681,3.484786,4.617721
145,0.891527,-0.974484,-0.623534,-0.053407,-0.962523,0.152189,1.407564,3.547668,4.051179
146,0.896164,-0.969618,-0.626116,-0.059831,-0.952885,0.143353,1.407564,3.421754,4.680604
147,0.884571,-0.969618,-0.639025,-0.050195,-0.956098,0.153795,1.281649,3.736466,3.988296
148,0.898483,-0.967185,-0.641607,-0.048589,-0.950476,0.157811,1.596361,3.358871,4.303008
149,0.896164,-0.981784,-0.615788,-0.05662,-0.948067,0.176281,1.533478,3.547668,4.428923
150,0.896164,-0.974484,-0.620952,-0.063044,-0.963327,0.169053,0.778139,3.610551,4.365891
151,0.896164,-0.974484,-0.620952,-0.061437,-0.94887,0.144158,1.092851,3.736466,4.617721
152,0.893845,-0.969618,-0.620952,-0.047784,-0.957705,0.164235,1.470596,3.232956,4.428923
153,0.896164,-0.972052,-0.602878,-0.052604,-0.959312,0.137733,1.407564,3.736466,4.491806
154,0.889208,-0.972052,-0.61837,-0.053407,-0.966538,0.148975,1.407564,3.673583,4.428923
155,0.893845,-0.962319,-0.615788,-0.052604,-0.94887,0.14496,1.407564,3.799498,4.554689
156,0.896164,-0.964752,-0.633861,-0.061437,-0.962523,0.152991,1.407564,3.673583,4.491806
157,0.896164,-0.964752,-0.633861,-0.061437,-0.956098,0.157811,1.218766,3.610551,4.428923
158,0.889208,-0.972052,-0.628698,-0.062242,-0.948067,0.152991,1.344681,3.484786,4.177094
159,0.893845,-0.984217,-0.615788,-0.052604,-0.954492,0.169053,1.596361,3.799498,4.554689
160,0.891527,-0.976918,-0.620952,-0.053407,-0.96172,0.141749,1.281649,3.547668,4.428923
161,0.905439,-0.976918,-0.615788,-0.05662,-0.94887,0.156204,1.218766,3.421754,4.806519
162,0.896164,-0.967185,-0.608042,-0.047784,-0.960114,0.152189,1.344681,3.484786,4.428923
163,0.900801,-0.972052,-0.628698,-0.050195,-0.947265,0.17869,1.407564,3.736466,3.988296
164,0.900801,-0.972052,-0.628698,-0.059831,-0.959312,0.16022,1.407564,3.925264,3.799498
165,0.905439,-0.969618,-0.644189,-0.064651,-0.956901,0.165037,1.281649,3.295839,4.239976
166,0.889208,-0.981784,-0.620952,-0.052604,-0.951281,0.145764,1.533478,3.610551,4.114211
167,0.912395,-0.974484,-0.600296,-0.043769,-0.960918,0.157811,1.155883,3.862381,3.925264
168,0.900801,-0.974484,-0.602878,-0.055815,-0.960918,0.150582,1.470596,3.799498,4.114211
169,0.891527,-0.967185,-0.610624,-0.052604,-0.94887,0.148975,1.470596,3.232956,4.303008
170,0.891527,-0.976918,-0.639025,-0.058226,-0.954492,0.161826,1.596361,3.484786,4.680604
171,0.891527,-0.976918,-0.639025,-0.048589,-0.950476,0.120867,1.407564,3.673583,4.428923
172,0.893845,-0.976918,-0.620952,-0.0518,-0.957705,0.145764,1.344681,3.358871,4.617721
173,0.893845,-0.974484,-0.61837,-0.055013,-0.952885,0.140142,1.785308,3.358871,4.428923
174,0.900801,-0.974484,-0.623534,-0.053407,-0.959312,0.1554,1.281649,3.799498,4.303008
175,0.898483,-0.979351,-0.60546,-0.053407,-0.94887,0.137733,1.155883,3.799498,4.051179
176,0.900801,-0.972052,-0.60546,-0.062242,-0.945659,0.14978,1.344681,3.484786,4.428923
177,0.900801,-0.972052,-0.60546,-0.060635,-0.965736,0.165842,1.344681,3.421754,4.051179
178,0.891527,-0.984217,-0.60546,-0.055013,-0.957705,0.148975,1.281649,3.484786,4.239976
179,0.893845,-0.986651,-0.61837,-0.055013,-0.957705,0.136127,1.407564,3.547668,4.177094
180,0.891527,-0.976918,-0.615788,-0.058226,-0.95369,0.159415,1.785308,3.547668,4.428923
181,0.893845,-0.974484,-0.633861,-0.055815,-0.952885,0.144158,1.281649,3.610551,4.554689
182,0.893845,-0.976918,-0.613206,-0.04618,-0.957705,0.173068,1.344681,3.736466,4.680604
183,0.900801,-0.976918,-0.628698,-0.059029,-0.957705,0.175479,1.092851,3.862381,4.177094
184,0.900801,-0.976918,-0.628698,-0.066257,-0.95369,0.168251,1.344681,3.421754,4.239976
185,0.905439,-0.972052,-0.641607,-0.055013,-0.964934,0.152991,1.533478,3.610551,4.491806
186,0.905439,-0.976918,-0.639025,-0.039754,-0.958507,0.163433,1.344681,3.547668,4.177094
187,0.896164,-0.979351,-0.610624,-0.047784,-0.960918,0.131307,1.218766,3.673583,5.058348
188,0.898483,-0.974484,-0.60546,-0.049391,-0.956098,0.148975,1.596361,3.799498,4.743636
189,0.891527,-0.986651,-0.644189,-0.04136,-0.952083,0.148173,1.218766,3.736466,4.365891
190,0.891527,-0.986651,-0.644189,-0.055815,-0.952083,0.152189,1.218766,3.547668,4.617721
191,0.893845,-0.967185,-0.597714,-0.064651,-0.957705,0.164235,1.344681,3.421754,4.239976
192,0.891527,-0.976918,-0.615788,-0.057422,-0.957705,0.172266,1.533478,3.736466,4.680604
193,0.905439,-0.976918,-0.608042,-0.054211,-0.944052,0.140142,1.533478,3.107041,4.554689
194,0.893845,-0.976918,-0.633861,-0.059831,-0.94887,0.148975,1.281649,3.736466,4.303008
195,0.893845,-0.979351,-0.631279,-0.049391,-0.94887,0.161022,1.470596,3.358871,4.365891
196,0.900801,-0.972052,-0.623534,-0.055815,-0.96172,0.151384,1.218766,3.358871,4.428923
197,0.900801,-0.972052,-0.623534,-0.04618,-0.957705,0.14978,1.407564,3.799498,4.365891
198,0.893845,-0.974484,-0.633861,-0.060635,-0.957705,0.139338,1.218766,3.736466,4.239976
199,0.893845,-0.967185,-0.628698,-0.058226,-0.950476,0.142551,1.407564,3.673583,4.303008
200,0.893845,-0.962319,-0.633861,-0.061437,-0.944052,0.165842,0.966936,3.295839,4.617721
201,0.882252,-0.967185,-0.639025,-0.053407,-0.960114,0.146567,0.966936,3.988296,4.491806
202,0.90312,-0.955019,-0.620952,-0.053407,-0.954492,0.153795,1.596361,3.736466,4.554689
203,0.90312,-0.955019,-0.620952,-0.063848,-0.946461,0.163433,1.470596,3.421754,4.491806
204,0.896164,-0.981784,-0.61837,-0.054211,-0.957705,0.140142,1.470596,3.610551,4.491806
205,0.898483,-0.967185,-0.615788,-0.065453,-0.956901,0.165842,1.407564,3.799498,4.554689
206,0.900801,-0.955019,-0.610624,-0.062242,-0.942445,0.172266,1.344681,3.358871,4.428923
207,0.891527,-0.972052,-0.644189,-0.05662,-0.95369,0.161022,1.218766,3.610551,4.491806
208,0.893845,-0.957452,-0.613206,-0.040558,-0.964129,0.157811,1.344681,3.421754,3.925264
209,0.896164,-0.964752,-0.620952,-0.048589,-0.957705,0.169053,1.344681,3.736466,4.617721
210,0.896164,-0.964752,-0.620952,-0.059831,-0.945659,0.162628,0.841171,3.421754,4.932433
211,0.907757,-0.969618,-0.61837,-0.050195,-0.962523,0.150582,1.281649,3.799498,4.743636
212,0.884571,-0.962319,-0.628698,-0.054211,-0.956901,0.14496,1.344681,3.799498,4.239976
213,0.898483,-0.955019,-0.620952,-0.061437,-0.956098,0.161022,1.596361,3.547668,4.365891
214,0.907757,-0.959886,-0.592551,-0.04618,-0.952885,0.136929,1.722276,3.862381,4.428923
215,0.884571,-0.967185,-0.620952,-0.045376,-0.95369,0.153795,1.659393,3.107041,4.177094
216,0.884571,-0.967185,-0.620952,-0.05662,-0.960918,0.154598,1.722276,3.673583,4.428923
217,0.898483,-0.962319,-0.613206,-0.052604,-0.954492,0.139338,1.344681,3.736466,3.862381
218,0.898483,-0.967185,-0.636443,-0.053407,-0.956098,0.172266,1.218766,3.547668,4.303008
219,0.900801,-0.964752,-0.631279,-0.054211,-0.952083,0.14496,1.533478,3.736466,4.743636
220,0.907757,-0.955019,-0.633861,-0.053407,-0.956098,0.140945,1.092851,3.232956,4.554689
221,0.891527,-0.959886,-0.641607,-0.05662,-0.951281,0.136127,1.659393,3.421754,4.428923
222,0.893845,-0.962319,-0.659681,-0.045376,-0.956098,0.159415,1.407564,3.358871,4.177094
223,0.893845,-0.962319,-0.659681,-0.062242,-0.955296,0.154598,1.596361,3.295839,4.114211
224,0.893845,-0.957452,-0.659681,-0.049391,-0.951281,0.153795,1.596361,3.547668,3.988296
225,0.889208,-0.955019,-0.610624,-0.065453,-0.956098,0.157811,1.533478,3.170073,4.491806
226,0.891527,-0.964752,-0.626116,-0.048589,-0.960114,0.163433,1.218766,3.484786,3.925264
227,0.882252,-0.957452,-0.626116,-0.062242,-0.944854,0.145764,1.218766,3.736466,4.114211
228,0.898483,-0.967185,-0.615788,-0.050195,-0.956098,0.138536,1.596361,3.421754,4.365891
229,0.893845,-0.957452,-0.620952,-0.05662,-0.954492,0.151384,0.904053,3.484786,4.680604
230,0.893845,-0.957452,-0.620952,-0.053407,-0.956098,0.166644,1.407564,3.547668,4.239976
231,0.900801,-0.967185,-0.608042,-0.036542,-0.959312,0.126489,1.470596,3.547668,3.925264
232,0.889208,-0.964752,-0.615788,-0.049391,-0.94887,0.169053,1.092851,3.358871,4.365891
233,0.900801,-0.969618,-0.633861,-0.059831,-0.955296,0.136929,1.407564,3.610551,3.862381
234,0.900801,-0.959886,-0.631279,-0.068666,-0.95369,0.153795,1.596361,3.107041,4.554689
235,0.898483,-0.964752,-0.626116,-0.047784,-0.964934,0.146567,1.344681,3.547668,4.491806
236,0.898483,-0.964752,-0.626116,-0.055815,-0.957705,0.152991,1.407564,4.051179,4.617721
237,0.896164,-0.964752,-0.636443,-0.050998,-0.94887,0.136127,1.344681,3.484786,4.365891
238,0.891527,-0.962319,-0.649353,-0.049391,-0.96172,0.166644,1.218766,3.358871,4.303008
239,0.889208,-0.957452,-0.641607,-0.060635,-0.947265,0.131307,1.092851,3.610551,4.743636
240,0.889208,-0.964752,-0.641607,-0.0518,-0.951281,0.169053,0.966936,3.421754,4.554689
241,0.884571,-0.972052,-0.628698,-0.0518,-0.967342,0.159415,1.281649,3.799498,4.239976
242,0.896164,-0.964752,-0.633861,-0.066257,-0.955296,0.132914,1.470596,3.736466,4.428923
243,0.896164,-0.964752,-0.633861,-0.059831,-0.949674,0.147369,1.533478,3.988296,4.554689
244,0.879933,-0.955019,-0.613206,-0.05662,-0.955296,0.162628,1.344681,3.484786,4.177094
245,0.891527,-0.959886,-0.608042,-0.055013,-0.954492,0.169857,1.029968,3.484786,4.869551
246,0.877615,-0.955019,-0.597714,-0.060635,-0.956901,0.153795,1.344681,3.673583,4.680604
247,0.875296,-0.967185,-0.636443,-0.05662,-0.958507,0.145764,1.659393,3.610551,4.680604
248,0.889208,-0.969618,-0.61837,-0.059831,-0.963327,0.150582,1.407564,3.484786,4.554689
249,0.889208,-0.969618,-0.61837,-0.05662,-0.954492,0.145764,1.470596,3.547668,4.554689
250,0.886889,-0.972052,-0.633861,-0.046982,-0.971358,0.142551,1.596361,3.610551,4.239976
251,0.891527,-0.972052,-0.61837,-0.062242,-0.947265,0.136929,1.344681,3.547668,3.925264
252,0.882252,-0.969618,-0.615788,-0.055013,-0.964129,0.163433,1.155883,3.673583,4.806519
253,0.896164,-0.974484,-0.615788,-0.046982,-0.971358,0.153795,1.407564,3.421754,4.177094
254,0.884571,-0.972052,-0.631279,-0.054211,-0.964934,0.150582,1.470596,3.610551,4.428923
255,0.879933,-0.976918,-0.623534,-0.054211,-0.952083,0.12408,1.344681,3.295839,4.491806
256,0.879933,-0.976918,-0.623534,-0.042164,-0.962523,0.16022,1.092851,3.610551,4.365891
257,0.886889,-0.969618,-0.623534,-0.058226,-0.94887,0.157811,1.659393,3.610551,4.428923
258,0.891527,-0.962319,-0.639025,-0.05662,-0.954492,0.161826,1.281649,3.421754,4.051179
259,0.898483,-0.962319,-0.615788,-0.060635,-0.954492,0.138536,1.659393,3.799498,4.428923
260,0.893845,-0.962319,-0.654517,-0.045376,-0.952083,0.13452,1.344681,3.610551,4.617721
261,0.896164,-0.964752,-0.626116,-0.0518,-0.954492,0.173068,1.407564,3.673583,4.303008
262,0.896164,-0.964752,-0.626116,-0.063848,-0.956098,0.162628,1.596361,3.610551,4.365891
263,0.891527,-0.969618,-0.633861,-0.05662,-0.952083,0.168251,1.218766,3.421754,4.177094
264,0.891527,-0.972052,-0.633861,-0.063044,-0.949674,0.14496,1.281649,3.799498,4.806519
265,0.905439,-0.979351,-0.615788,-0.062242,-0.954492,0.147369,1.533478,3.925264,4.806519
266,0.900801,-0.967185,-0.631279,-0.057422,-0.956098,0.1554,1.155883,3.421754,4.680604
267,0.898483,-0.974484,-0.644189,-0.071879,-0.952083,0.14978,0.904053,3.799498,4.114211
268,0.891527,-0.955019,-0.659681,-0.058226,-0.949674,0.136929,1.407564,3.358871,4.491806
269,0.891527,-0.955019,-0.659681,-0.060635,-0.954492,0.136929,1.659393,3.610551,4.365891
270,0.900801,-0.959886,-0.639025,-0.055815,-0.956098,0.133716,1.155883,3.610551,4.491806
271,0.896164,-0.967185,-0.610624,-0.043769,-0.954492,0.157006,1.155883,3.610551,4.617721
272,0.891527,-0.967185,-0.602878,-0.050998,-0.951281,0.139338,1.155883,4.051179,4.491806
273,0.900801,-0.969618,-0.644189,-0.058226,-0.956098,0.168251,1.344681,3.610551,4.680604
274,0.896164,-0.962319,-0.626116,-0.059831,-0.947265,0.158613,1.407564,3.358871,4.051179
275,0.896164,-0.962319,-0.626116,-0.0518,-0.950476,0.152189,1.155883,3.925264,4.428923
276,0.889208,-0.976918,-0.613206,-0.0518,-0.965736,0.168251,1.281649,3.673583,4.114211
277,0.896164,-0.967185,-0.620952,-0.059029,-0.955296,0.16022,1.911074,3.232956,4.680604
278,0.891527,-0.969618,-0.613206,-0.059029,-0.944854,0.162628,1.281649,3.484786,4.114211
279,0.889208,-0.976918,-0.626116,-0.049391,-0.950476,0.138536,1.155883,3.799498,4.303008
280,0.879933,-0.957452,-0.608042,-0.05662,-0.962523,0.140142,1.344681,3.421754,4.428923
281,0.889208,-0.967185,-0.626116,-0.05662,-0.958507,0.161826,1.533478,3.736466,4.806519
282,0.889208,-0.967185,-0.626116,-0.050195,-0.957705,0.146567,1.596361,3.295839,3.925264
283,0.889208,-0.964752,-0.633861,-0.050195,-0.951281,0.186721,1.218766,3.799498,5.058348
284,0.898483,-0.967185,-0.633861,-0.054211,-0.952083,0.169053,1.092851,3.673583,4.303008
285,0.896164,-0.974484,-0.623534,-0.05662,-0.960114,0.142551,1.281649,3.170073,4.177094
286,0.90312,-0.967185,-0.620952,-0.059029,-0.956901,0.140945,1.659393,3.232956,4.617721
287,0.891527,-0.959886,-0.620952,-0.055815,-0.956098,0.144158,1.533478,3.547668,4.428923
288,0.889208,-0.964752,-0.626116,-0.049391,-0.952885,0.152189,1.344681,3.610551,4.239976
289,0.889208,-0.964752,-0.626116,-0.048589,-0.951281,0.148173,1.407564,3.421754,4.491806
290,0.898483,-0.967185,-0.639025,-0.052604,-0.949674,0.14496,1.092851,3.484786,4.743636
291,0.889208,-0.964752,-0.628698,-0.04618,-0.956901,0.144158,1.344681,3.925264,4.617721
292,0.889208,-0.957452,-0.61837,-0.0518,-0.958507,0.148975,0.778139,3.547668,4.177094
293,0.882252,-0.974484,-0.623534,-0.055815,-0.962523,0.150582,1.596361,3.610551,4.428923
294,0.889208,-0.984217,-0.641607,-0.050998,-0.948067,0.168251,1.218766,3.610551,4.365891
295,0.889208,-0.984217,-0.641607,-0.050998,-0.957705,0.150582,1.218766,3.421754,4.239976
296,0.882252,-0.967185,-0.631279,-0.052604,-0.94887,0.158613,1.596361,3.107041,4.365891
297,0.896164,-0.964752,-0.623534,-0.057422,-0.96172,0.156204,1.407564,3.673583,4.428923
298,0.884571,-0.964752,-0.597714,-0.0518,-0.956901,0.141749,1.533478,3.610551,4.554689
299,0.889208,-0.957452,-0.649353,-0.052604,-0.965736,0.159415,1.407564,3.295839,3.799498
300,0.889208,-0.94772,-0.628698,-0.046982,-0.962523,0.173068,1.155883,3.988296,4.869551
301,0.886889,-0.955019,-0.631279,-0.059831,-0.958507,0.153795,1.281649,3.610551,4.365891
302,0.886889,-0.955019,-0.631279,-0.045376,-0.956098,0.191541,1.092851,3.547668,4.051179
303,0.893845,-0.950153,-0.623534,-0.055013,-0.959312,0.157811,1.344681,3.484786,4.051179
304,0.884571,-0.957452,-0.636443,-0.061437,-0.952083,0.137733,1.092851,3.736466,4.680604
305,0.90312,-0.955019,-0.631279,-0.054211,-0.949674,0.132914,1.533478,3.484786,4.428923
306,0.893845,-0.952586,-0.646771,-0.047784,-0.952083,0.173068,1.281649,3.421754,4.114211
307,0.884571,-0.959886,-0.592551,-0.055815,-0.950476,0.142551,1.407564,3.610551,4.303008
308,0.884571,-0.959886,-0.592551,-0.055815,-0.957705,0.1554,1.533478,3.799498,4.428923
309,0.896164,-0.955019,-0.610624,-0.060635,-0.956098,0.147369,1.281649,3.610551,4.303008
310,0.891527,-0.964752,-0.623534,-0.058226,-0.955296,0.152189,1.281649,3.484786,3.736466
311,0.889208,-0.952586,-0.644189,-0.061437,-0.955296,0.165842,1.218766,3.484786,4.365891
312,0.893845,-0.962319,-0.615788,-0.044573,-0.959312,0.166644,1.281649,3.799498,3.988296
313,0.893845,-0.955019,-0.641607,-0.054211,-0.960114,0.148173,1.407564,3.295839,4.239976
314,0.896164,-0.959886,-0.623534,-0.050195,-0.957705,0.170659,1.281649,3.547668,4.554689
315,0.896164,-0.959886,-0.623534,-0.058226,-0.954492,0.146567,1.281649,3.799498,4.177094
316,0.889208,-0.945287,-0.613206,-0.055815,-0.956901,0.161022,1.281649,3.421754,4.680604
317,0.886889,-0.974484,-0.61837,-0.059029,-0.957705,0.162628,1.533478,3.862381,4.365891
318,0.896164,-0.974484,-0.613206,-0.062242,-0.948067,0.145764,1.155883,3.799498,4.806519
319,0.896164,-0.955019,-0.620952,-0.04618,-0.952083,0.140142,1.407564,3.295839,4.365891
320,0.891527,-0.950153,-0.613206,-0.063848,-0.955296,0.1554,1.470596,3.484786,4.303008
321,0.891527,-0.950153,-0.613206,-0.057422,-0.949674,0.165842,1.155883,3.421754,4.177094
322,0.891527,-0.962319,-0.631279,-0.044573,-0.955296,0.157006,0.904053,3.925264,4.365891
323,0.889208,-0.957452,-0.633861,-0.0518,-0.952083,0.151384,1.407564,3.610551,4.114211
324,0.891527,-0.94772,-0.613206,-0.0518,-0.969751,0.16022,1.533478,3.925264,3.862381
325,0.896164,-0.962319,-0.623534,-0.057422,-0.952083,0.127292,1.470596,3.232956,4.554689
326,0.884571,-0.955019,-0.61837,-0.059029,-0.940839,0.158613,1.029968,3.799498,4.114211
327,0.893845,-0.957452,-0.620952,-0.063044,-0.954492,0.174675,1.533478,3.736466,3.988296
328,0.893845,-0.957452,-0.620952,-0.050998,-0.96172,0.176281,0.904053,3.170073,4.428923
329,0.900801,-0.950153,-0.620952,-0.060635,-0.96172,0.165037,1.533478,3.736466,4.239976
330,0.893845,-0.962319,-0.628698,-0.059029,-0.959312,0.157006,1.029968,3.925264,4.239976
331,0.90312,-0.972052,-0.633861,-0.046982,-0.960114,0.14496,0.966936,3.295839,4.365891
332,0.891527,-0.957452,-0.633861,-0.062242,-0.950476,0.161826,1.218766,3.421754,4.428923
333,0.896164,-0.967185,-0.610624,-0.052604,-0.94887,0.122474,1.155883,3.421754,4.114211
334,0.889208,-0.964752,-0.610624,-0.050195,-0.959312,0.153795,1.218766,3.736466,4.428923
335,0.889208,-0.964752,-0.610624,-0.062242,-0.94887,0.14978,1.470596,3.484786,4.680604
336,0.889208,-0.94772,-0.610624,-0.059029,-0.952083,0.154598,1.407564,3.547668,4.491806
337,0.896164,-0.952586,-0.615788,-0.058226,-0.946461,0.142551,1.659393,3.673583,4.051179
338,0.891527,-0.964752,-0.615788,-0.057422,-0.960114,0.137733,1.785308,3.421754,3.799498
339,0.891527,-0.962319,-0.628698,-0.055815,-0.94887,0.163433,1.722276,3.421754,4.303008
340,0.900801,-0.969618,-0.608042,-0.049391,-0.952885,0.161826,1.407564,3.610551,4.428923
341,0.900801,-0.969618,-0.608042,-0.050195,-0.960114,0.137733,1.155883,3.925264,4.114211
342,0.884571,-0.969618,-0.631279,-0.048589,-0.956098,0.140142,1.596361,3.484786,4.428923
343,0.896164,-0.964752,-0.600296,-0.048589,-0.952885,0.137733,1.596361,3.736466,4.428923
344,0.900801,-0.981784,-0.615788,-0.046982,-0.954492,0.139338,1.659393,3.044158,3.925264
345,0.896164,-0.974484,-0.608042,-0.053407,-0.956098,0.165842,1.848191,3.421754,4.617721
346,0.893845,-0.969618,-0.60546,-0.053407,-0.946461,0.171464,1.470596,3.547668,4.114211
347,0.884571,-0.964752,-0.610624,-0.058226,-0.956098,0.147369,1.092851,3.484786,4.177094
348,0.884571,-0.964752,-0.610624,-0.057422,-0.964129,0.146567,1.344681,3.736466,4.239976
349,0.879933,-0.969618,-0.644189,-0.053407,-0.959312,0.159415,1.281649,3.799498,4.869551
350,0.889208,-0.974484,-0.626116,-0.061437,-0.945659,0.152991,1.407564,3.610551,4.239976
351,0.891527,-0.979351,-0.631279,-0.058226,-0.956901,0.132111,1.407564,3.484786,4.051179
352,0.891527,-0.964752,-0.628698,-0.049391,-0.952885,0.152189,1.659393,3.799498,4.177094
353,0.900801,-0.974484,-0.633861,-0.061437,-0.948067,0.137733,1.155883,3.610551,4.428923
354,0.900801,-0.974484,-0.633861,-0.053407,-0.950476,0.180297,1.344681,3.862381,4.239976
355,0.900801,-0.972052,-0.610624,-0.0518,-0.948067,0.159415,1.596361,3.421754,4.177094
356,0.891527,-0.967185,-0.628698,-0.054211,-0.954492,0.165842,1.533478,3.421754,4.365891
357,0.896164,-0.967185,-0.633861,-0.054211,-0.964129,0.132914,1.281649,3.107041,4.680604
358,0.896164,-0.984217,-0.620952,-0.04618,-0.95369,0.170659,1.533478,3.673583,4.554689
359,0.900801,-0.969618,-0.654517,-0.064651,-0.951281,0.181099,1.281649,3.610551,4.806519
360,0.891527,-0.967185,-0.649353,-0.054211,-0.952083,0.167448,1.407564,3.547668,4.680604
361,0.891527,-0.967185,-0.649353,-0.05662,-0.95369,0.177888,1.281649,3.547668,4.617721
362,0.889208,-0.964752,-0.626116,-0.052604,-0.94887,0.153795,1.344681,3.295839,4.114211
363,0.891527,-0.962319,-0.631279,-0.049391,-0.952083,0.154598,1.596361,3.170073,4.303008
364,0.893845,-0.969618,-0.646771,-0.054211,-0.955296,0.177888,1.407564,3.421754,4.617721
365,0.900801,-0.974484,-0.636443,-0.053407,-0.956901,0.14978,1.344681,3.925264,4.365891
366,0.891527,-0.974484,-0.597714,-0.044573,-0.954492,0.112032,1.407564,3.610551,4.051179
367,0.891527,-0.974484,-0.597714,-0.055013,-0.955296,0.141749,1.407564,3.358871,4.365891
368,0.896164,-0.972052,-0.633861,-0.05662,-0.950476,0.143353,1.407564,3.610551,4.617721
369,0.884571,-0.964752,-0.626116,-0.058226,-0.957705,0.139338,1.848191,3.170073,4.239976
370,0.896164,-0.967185,-0.636443,-0.048589,-0.963327,0.136929,1.848191,3.799498,3.799498
371,0.905439,-0.969618,-0.602878,-0.05662,-0.946461,0.144158,1.092851,3.484786,4.554689
372,0.900801,-0.972052,-0.610624,-0.045376,-0.970554,0.152991,1.596361,3.799498,4.114211
373,0.896164,-0.974484,-0.620952,-0.055013,-0.954492,0.137733,1.029968,3.358871,4.365891
374,0.896164,-0.974484,-0.620952,-0.055815,-0.956901,0.152991,1.533478,3.232956,4.114211
375,0.891527,-0.969618,-0.610624,-0.059029,-0.962523,0.127292,1.470596,3.673583,3.988296
376,0.893845,-0.959886,-0.623534,-0.058226,-0.960918,0.162628,1.659393,3.610551,4.491806
377,0.884571,-0.959886,-0.623534,-0.047784,-0.952083,0.169857,1.659393,3.736466,4.177094
378,0.893845,-0.964752,-0.620952,-0.05662,-0.957705,0.150582,1.344681,3.358871,4.239976
379,0.896164,-0.969618,-0.623534,-0.05662,-0.960114,0.143353,1.155883,3.862381,4.428923
380,0.889208,-0.962319,-0.644189,-0.055815,-0.949674,0.146567,1.533478,3.547668,4.177094
381,0.889208,-0.962319,-0.644189,-0.055815,-0.960114,0.159415,1.344681,3.421754,3.862381
382,0.886889,-0.969618,-0.620952,-0.055815,-0.958507,0.14978,1.533478,3.610551,3.799498
383,0.893845,-0.964752,-0.628698,-0.05662,-0.964129,0.159415,1.155883,3.170073,4.177094
384,0.900801,-0.969618,-0.615788,-0.055013,-0.950476,0.140142,1.344681,3.673583,4.051179
385,0.889208,-0.981784,-0.631279,-0.043769,-0.94887,0.142551,1.029968,3.547668,4.365891
386,0.896164,-0.964752,-0.61837,-0.050195,-0.962523,0.165842,1.344681,3.170073,4.365891
387,0.896164,-0.964752,-0.61837,-0.058226,-0.952083,0.140142,1.281649,3.799498,4.365891
388,0.893845,-0.974484,-0.620952,-0.050998,-0.960114,0.14978,1.092851,3.673583,3.862381
389,0.905439,-0.969618,-0.620952,-0.057422,-0.950476,0.140142,1.470596,3.862381,4.491806
390,0.900801,-0.969618,-0.636443,-0.055815,-0.959312,0.159415,1.281649,3.170073,3.925264
391,0.898483,-0.959886,-0.651935,-0.047784,-0.951281,0.143353,1.218766,3.421754,4.303008
392,0.905439,-0.962319,-0.631279,-0.046982,-0.960114,0.154598,1.218766,3.421754,4.428923
393,0.90312,-0.969618,-0.636443,-0.05662,-0.956901,0.163433,1.470596,3.295839,4.365891
394,0.90312,-0.969618,-0.636443,-0.055013,-0.945659,0.148975,1.218766,3.610551,3.925264
395,0.898483,-0.974484,-0.602878,-0.048589,-0.954492,0.128898,1.407564,3.484786,4.114211
396,0.891527,-0.959886,-0.597714,-0.0518,-0.964934,0.179495,1.407564,3.547668,4.428923
397,0.882252,-0.959886,-0.613206,-0.063044,-0.945659,0.130505,1.659393,3.421754,4.365891
398,0.898483,-0.964752,-0.615788,-0.042967,-0.952083,0.157006,1.596361,3.547668,4.051179
399,0.900801,-0.969618,-0.623534,-0.053407,-0.949674,0.152189,2.036989,3.862381,4.114211
400,0.900801,-0.969618,-0.623534,-0.046982,-0.952083,0.144158,1.533478,3.673583,4.491806
401,0.896164,-0.964752,-0.626116,-0.061437,-0.951281,0.147369,1.155883,3.421754,4.177094
402,0.896164,-0.964752,-0.61837,-0.052604,-0.966538,0.12167,1.344681,3.673583,3.925264
403,0.893845,-0.964752,-0.631279,-0.061437,-0.952083,0.145764,1.848191,3.610551,4.680604
404,0.886889,-0.972052,-0.623534,-0.061437,-0.94887,0.173068,1.218766,3.547668,4.554689
405,0.889208,-0.981784,-0.615788,-0.065453,-0.947265,0.161826,1.659393,3.358871,4.114211
406,0.884571,-0.974484,-0.636443,-0.059029,-0.946461,0.14496,1.218766,3.484786,4.239976
407,0.884571,-0.974484,-0.636443,-0.050998,-0.947265,0.169053,1.596361,3.547668,4.239976
408,0.896164,-0.969618,-0.649353,-0.064651,-0.960114,0.144158,1.218766,3.862381,4.365891
409,0.886889,-0.969618,-0.623534,-0.058226,-0.950476,0.14496,1.407564,3.547668,4.365891
410,0.886889,-0.959886,-0.633861,-0.053407,-0.963327,0.165842,1.344681,3.358871,4.177094
411,0.891527,-0.972052,-0.644189,-0.058226,-0.952885,0.165037,1.533478,3.295839,4.365891
412,0.898483,-0.976918,-0.613206,-0.044573,-0.952083,0.1554,1.218766,3.673583,4.365891
413,0.898483,-0.976918,-0.613206,-0.049391,-0.958507,0.173068,1.596361,3.862381,4.177094
414,0.900801,-0.972052,-0.651935,-0.059029,-0.964934,0.133716,1.659393,3.484786,4.114211
415,0.90312,-0.964752,-0.649353,-0.062242,-0.951281,0.142551,1.785308,3.736466,4.239976
416,0.886889,-0.967185,-0.651935,-0.039754,-0.960114,0.147369,1.659393,3.421754,4.365891
417,0.884571,-0.967185,-0.646771,-0.054211,-0.955296,0.161826,1.596361,3.988296,3.925264
418,0.891527,-0.967185,-0.631279,-0.0518,-0.964129,0.148975,1.407564,3.358871,4.365891
419,0.900801,-0.964752,-0.644189,-0.043769,-0.960114,0.128096,1.344681,3.170073,3.988296
420,0.900801,-0.964752,-0.644189,-0.05662,-0.949674,0.144158,1.470596,3.421754,4.680604
421,0.900801,-0.962319,-0.620952,-0.053407,-0.964934,0.131307,1.155883,3.799498,4.428923
422,0.891527,-0.972052,-0.639025,-0.05662,-0.954492,0.13452,1.155883,3.421754,4.303008
423,0.893845,-0.979351,-0.641607,-0.057422,-0.96172,0.144158,1.407564,3.547668,4.491806
424,0.889208,-0.981784,-0.633861,-0.04618,-0.956901,0.137733,1.596361,3.421754,4.554689
425,0.886889,-0.979351,-0.623534,-0.058226,-0.94887,0.142551,1.281649,3.799498,3.925264
426,0.893845,-0.969618,-0.651935,-0.065453,-0.952083,0.176281,1.596361,3.107041,4.177094
427,0.893845,-0.969618,-0.651935,-0.055013,-0.957705,0.138536,1.470596,3.295839,4.869551
428,0.889208,-0.957452,-0.641607,-0.054211,-0.96172,0.159415,1.344681,3.799498,4.239976
429,0.891527,-0.964752,-0.613206,-0.048589,-0.957705,0.156204,1.407564,3.673583,4.617721
430,0.898483,-0.974484,-0.623534,-0.055013,-0.956901,0.152189,1.533478,3.610551,4.365891
431,0.891527,-0.972052,-0.626116,-0.05662,-0.952885,0.16022,1.281649,3.547668,4.177094
432,0.886889,-0.976918,-0.644189,-0.055815,-0.95369,0.148975,1.407564,3.358871,4.177094
433,0.886889,-0.976918,-0.644189,-0.055815,-0.960114,0.148975,1.407564,3.673583,4.932433
434,0.889208,-0.976918,-0.636443,-0.062242,-0.94887,0.161826,1.407564,3.358871,4.365891
435,0.893845,-0.972052,-0.646771,-0.05662,-0.960918,0.1554,1.470596,3.421754,3.925264
436,0.889208,-0.962319,-0.644189,-0.059831,-0.965736,0.14496,1.407564,3.421754,4.239976
437,0.896164,-0.979351,-0.639025,-0.050195,-0.954492,0.159415,1.407564,3.484786,4.554689
438,0.891527,-0.972052,-0.654517,-0.042164,-0.957705,0.16022,1.407564,3.799498,4.114211
439,0.896164,-0.979351,-0.631279,-0.057422,-0.950476,0.1554,1.407564,3.673583,4.932433
440,0.896164,-0.979351,-0.631279,-0.048589,-0.946461,0.133716,1.533478,3.358871,4.114211
441,0.90312,-0.962319,-0.646771,-0.055013,-0.958507,0.144158,1.155883,3.421754,4.303008
442,0.879933,-0.969618,-0.623534,-0.054211,-0.954492,0.143353,1.281649,3.421754,3.988296
443,0.900801,-0.981784,-0.608042,-0.052604,-0.94887,0.158613,1.281649,4.051179,3.988296
444,0.905439,-0.981784,-0.633861,-0.050998,-0.956901,0.166644,1.533478,3.547668,4.365891
445,0.889208,-0.976918,-0.636443,-0.054211,-0.954492,0.158613,1.659393,3.610551,4.365891
446,0.889208,-0.976918,-0.636443,-0.055013,-0.958507,0.166644,1.407564,3.610551,4.177094
447,0.893845,-0.974484,-0.61837,-0.052604,-0.967342,0.16022,1.281649,3.736466,4.365891
448,0.889208,-0.972052,-0.600296,-0.048589,-0.952885,0.146567,1.533478,3.421754,4.743636
449,0.905439,-0.967185,-0.628698,-0.04618,-0.965736,0.175479,1.722276,3.736466,4.303008
450,0.90312,-0.976918,-0.610624,-0.063044,-0.948067,0.166644,1.218766,3.484786,4.239976
451,0.889208,-0.979351,-0.615788,-0.053407,-0.960918,0.13452,1.155883,3.736466,4.491806
452,0.893845,-0.976918,-0.589969,-0.04618,-0.952885,0.16022,1.533478,3.547668,4.239976
453,0.893845,-0.976918,-0.589969,-0.058226,-0.949674,0.128096,1.344681,3.736466,4.554689
454,0.891527,-0.986651,-0.600296,-0.055815,-0.952885,0.173873,1.596361,3.547668,4.428923
455,0.910076,-0.974484,-0.615788,-0.052604,-0.94887,0.161826,1.281649,3.358871,4.177094
456,0.893845,-0.967185,-0.623534,-0.048589,-0.951281,0.173873,1.596361,3.421754,4.428923
457,0.905439,-0.972052,-0.61837,-0.066257,-0.950476,0.171464,1.344681,3.421754,4.239976
458,0.896164,-0.967185,-0.633861,-0.055815,-0.96172,0.1554,1.470596,3.673583,4.491806
459,0.896164,-0.967185,-0.633861,-0.058226,-0.956901,0.12408,1.533478,3.673583,4.428923
460,0.900801,-0.969618,-0.636443,-0.068666,-0.949674,0.137733,1.281649,3.547668,5.058348
461,0.905439,-0.974484,-0.623534,-0.055815,-0.964129,0.135323,1.470596,3.421754,4.114211
462,0.886889,-0.979351,-0.613206,-0.053407,-0.958507,0.157811,1.596361,3.610551,4.428923
463,0.893845,-0.974484,-0.613206,-0.062242,-0.954492,0.174675,1.218766,3.547668,4.428923
464,0.889208,-0.964752,-0.623534,-0.048589,-0.956901,0.13452,1.407564,3.799498,4.303008
465,0.891527,-0.974484,-0.639025,-0.061437,-0.944854,0.162628,1.407564,3.421754,4.303008
466,0.891527,-0.974484,-0.639025,-0.058226,-0.95369,0.143353,1.659393,3.673583,4.806519
467,0.891527,-0.964752,-0.60546,-0.049391,-0.952083,0.150582,1.155883,3.610551,4.365891
468,0.900801,-0.964752,-0.615788,-0.058226,-0.952083,0.148975,1.092851,3.736466,4.365891
469,0.896164,-0.957452,-0.639025,-0.053407,-0.96172,0.156204,1.281649,3.862381,4.428923
470,0.900801,-0.967185,-0.646771,-0.050195,-0.958507,0.139338,1.029968,3.799498,4.051179
471,0.907757,-0.962319,-0.628698,-0.066257,-0.954492,0.150582,1.344681,3.610551,4.491806
472,0.907757,-0.962319,-0.61837,-0.053407,-0.952083,0.187526,1.092851,3.673583,4.680604
473,0.907757,-0.962319,-0.61837,-0.048589,-0.960918,0.151384,1.029968,3.610551,4.051179
474,0.891527,-0.964752,-0.623534,-0.055013,-0.950476,0.157006,1.407564,3.610551,4.303008
475,0.905439,-0.969618,-0.592551,-0.055815,-0.958507,0.140945,1.344681,3.547668,4.365891
476,0.898483,-0.964752,-0.615788,-0.055815,-0.948067,0.137733,1.218766,3.610551,4.177094
477,0.893845,-0.967185,-0.600296,-0.053407,-0.947265,0.131307,1.470596,3.799498,4.239976
478,0.896164,-0.964752,-0.626116,-0.054211,-0.960918,0.158613,1.470596,3.610551,4.114211
479,0.896164,-0.964752,-0.626116,-0.052604,-0.952885,0.161022,1.218766,3.358871,4.491806
480,0.898483,-0.967185,-0.610624,-0.04618,-0.958507,0.169053,1.344681,3.736466,4.365891
481,0.898483,-0.964752,-0.644189,-0.063044,-0.957705,0.146567,1.533478,3.862381,4.428923
482,0.889208,-0.962319,-0.620952,-0.053407,-0.956098,0.132111,1.218766,3.736466,4.051179
483,0.889208,-0.972052,-0.615788,-0.063044,-0.952885,0.168251,1.596361,3.610551,4.743636
484,0.889208,-0.959886,-0.620952,-0.05662,-0.950476,0.153795,1.659393,3.862381,4.239976
485,0.891527,-0.976918,-0.610624,-0.059831,-0.956098,0.159415,1.155883,3.736466,4.869551
486,0.891527,-0.976918,-0.610624,-0.048589,-0.958507,0.127292,1.344681,3.295839,4.239976
487,0.889208,-0.974484,-0.597714,-0.050998,-0.951281,0.153795,1.470596,3.421754,4.617721
488,0.893845,-0.974484,-0.613206,-0.059831,-0.956098,0.169053,1.596361,3.610551,3.862381
489,0.893845,-0.967185,-0.623534,-0.049391,-0.962523,0.152189,1.407564,3.421754,4.239976
490,0.896164,-0.986651,-0.644189,-0.052604,-0.959312,0.126489,1.218766,3.610551,4.743636
491,0.90312,-0.979351,-0.636443,-0.050998,-0.95369,0.168251,1.407564,3.610551,4.239976
492,0.90312,-0.979351,-0.636443,-0.05662,-0.960114,0.136929,1.281649,3.673583,4.114211
493,0.898483,-0.967185,-0.628698,-0.062242,-0.951281,0.156204,1.470596,3.673583,4.365891
494,0.896164,-0.974484,-0.620952,-0.050998,-0.964129,0.16022,1.344681,3.862381,4.806519
495,0.896164,-0.964752,-0.631279,-0.053407,-0.960114,0.169857,1.533478,3.547668,4.491806
496,0.900801,-0.962319,-0.610624,-0.047784,-0.945659,0.161826,1.533478,3.358871,4.239976
497,0.891527,-0.959886,-0.602878,-0.062242,-0.94887,0.161826,1.155883,3.421754,4.051179
498,0.90312,-0.964752,-0.633861,-0.055013,-0.95369,0.157811,1.407564,3.232956,4.177094
499,0.90312,-0.964752,-0.633861,-0.059029,-0.954492,0.136127,1.407564,3.232956,4.617721
500,0.896164,-0.964752,-0.623534,-0.050998,-0.951281,0.14496,1.533478,3.547668,4.239976
501,0.893845,-0.964752,-0.608042,-0.058226,-0.94887,0.154598,1.155883,3.421754,4.239976
502,0.886889,-0.969618,-0.620952,-0.048589,-0.955296,0.152189,1.344681,3.799498,4.428923
503,0.90312,-0.969618,-0.626116,-0.067864,-0.946461,0.154598,1.407564,3.358871,4.303008
504,0.893845,-0.979351,-0.613206,-0.05662,-0.957705,0.124883,1.092851,3.107041,4.365891
505,0.893845,-0.979351,-0.613206,-0.046982,-0.94887,0.161022,1.659393,3.170073,4.428923
506,0.893845,-0.967185,-0.60546,-0.064651,-0.94325,0.151384,1.470596,3.484786,4.491806
507,0.907757,-0.974484,-0.620952,-0.055013,-0.957705,0.170659,1.407564,3.673583,4.051179
508,0.898483,-0.964752,-0.620952,-0.054211,-0.959312,0.150582,1.470596,3.547668,4.239976
509,0.896164,-0.967185,-0.610624,-0.050195,-0.955296,0.146567,1.470596,3.799498,4.303008
510,0.90312,-0.969618,-0.626116,-0.053407,-0.949674,0.169053,1.344681,3.610551,4.806519
511,0.891527,-0.969618,-0.641607,-0.046982,-0.952083,0.128898,0.966936,3.610551,4.554689
512,0.891527,-0.969618,-0.641607,-0.050195,-0.96172,0.133716,1.533478,3.358871,4.365891
513,0.90312,-0.962319,-0.613206,-0.055013,-0.962523,0.137733,1.533478,3.547668,4.239976
514,0.896164,-0.967185,-0.602878,-0.050998,-0.963327,0.163433,1.092851,3.484786,4.365891
515,0.910076,-0.959886,-0.639025,-0.055815,-0.954492,0.131307,1.659393,3.610551,4.303008
516,0.907757,-0.964752,-0.633861,-0.05662,-0.956098,0.145764,0.966936,3.547668,4.617721
517,0.900801,-0.972052,-0.613206,-0.055815,-0.965736,0.132914,1.092851,3.673583,4.303008
518,0.900801,-0.972052,-0.613206,-0.05662,-0.952083,0.152991,1.785308,3.610551,4.365891
519,0.907757,-0.972052,-0.600296,-0.055815,-0.95369,0.146567,1.218766,3.547668,4.114211
520,0.900801,-0.974484,-0.639025,-0.063044,-0.952885,0.150582,1.029968,3.673583,4.303008
521,0.910076,-0.976918,-0.600296,-0.057422,-0.954492,0.132914,1.218766,3.358871,4.491806
522,0.907757,-0.967185,-0.61837,-0.0518,-0.958507,0.161022,1.659393,3.358871,4.114211
523,0.898483,-0.972052,-0.615788,-0.055815,-0.963327,0.165037,1.533478,3.421754,4.239976
524,0.896164,-0.964752,-0.61837,-0.047784,-0.947265,0.154598,1.218766,3.295839,4.806519
525,0.896164,-0.964752,-0.61837,-0.049391,-0.957705,0.159415,1.596361,3.610551,4.617721
526,0.893845,-0.959886,-0.613206,-0.050998,-0.955296,0.146567,1.848191,3.925264,4.239976
527,0.917032,-0.962319,-0.61837,-0.061437,-0.957705,0.148173,1.281649,3.925264,4.491806
528,0.905439,-0.969618,-0.602878,-0.059831,-0.956098,0.135323,1.722276,3.484786,3.925264
529,0.912395,-0.972052,-0.613206,-0.050195,-0.951281,0.159415,1.848191,3.170073,3.925264
530,0.912395,-0.964752,-0.623534,-0.059029,-0.955296,0.150582,1.659393,3.044158,4.743636
531,0.912395,-0.964752,-0.623534,-0.062242,-0.945659,0.137733,1.533478,3.547668,4.177094
532,0.891527,-0.964752,-0.592551,-0.065453,-0.964934,0.165037,1.281649,3.547668,4.177094
533,0.90312,-0.959886,-0.61837,-0.055815,-0.949674,0.143353,1.092851,3.232956,4.554689
534,0.90312,-0.972052,-0.60546,-0.063044,-0.959312,0.171464,1.092851,3.547668,4.554689
535,0.910076,-0.969618,-0.639025,-0.050998,-0.963327,0.16022,0.841171,3.799498,4.303008
536,0.912395,-0.964752,-0.615788,-0.052604,-0.955296,0.16022,1.659393,3.421754,4.365891
537,0.910076,-0.964752,-0.628698,-0.050998,-0.957705,0.147369,1.281649,3.295839,4.239976
538,0.910076,-0.964752,-0.628698,-0.060635,-0.952885,0.146567,1.029968,3.358871,4.365891
539,0.900801,-0.957452,-0.60546,-0.043769,-0.965736,0.1554,1.407564,3.736466,4.365891
540,0.898483,-0.972052,-0.631279,-0.061437,-0.952885,0.152991,1.092851,3.295839,4.177094
541,0.900801,-0.976918,-0.61837,-0.0518,-0.949674,0.152189,1.659393,3.547668,4.680604
542,0.90312,-0.967185,-0.608042,-0.048589,-0.962523,0.144158,1.407564,3.547668,4.428923
543,0.898483,-0.974484,-0.613206,-0.046982,-0.962523,0.140945,1.281649,3.547668,4.239976
544,0.910076,-0.964752,-0.597714,-0.055013,-0.960918,0.139338,1.533478,3.232956,4.365891
545,0.910076,-0.964752,-0.597714,-0.043769,-0.960918,0.146567,1.155883,3.736466,4.428923
546,0.896164,-0.967185,-0.595133,-0.049391,-0.967342,0.140142,1.092851,3.862381,3.988296
547,0.900801,-0.967185,-0.602878,-0.046982,-0.960114,0.148975,1.470596,3.484786,4.680604
548,0.893845,-0.969618,-0.623534,-0.058226,-0.951281,0.145764,1.344681,3.673583,3.988296
549,0.896164,-0.976918,-0.610624,-0.055815,-0.960918,0.140142,1.407564,3.484786,4.051179
550,0.905439,-0.969618,-0.628698,-0.053407,-0.95369,0.152189,1.596361,3.925264,4.177094
551,0.905439,-0.969618,-0.628698,-0.046982,-0.960114,0.146567,1.281649,3.295839,4.365891
552,0.898483,-0.962319,-0.60546,-0.048589,-0.958507,0.16022,1.407564,3.484786,4.303008
553,0.905439,-0.969618,-0.628698,-0.053407,-0.952885,0.152991,1.722276,3.547668,4.428923
554,0.886889,-0.964752,-0.597714,-0.057422,-0.954492,0.161022,1.218766,3.799498,4.303008
555,0.900801,-0.962319,-0.623534,-0.047784,-0.951281,0.110427,1.407564,3.421754,4.365891
556,0.896164,-0.969618,-0.631279,-0.055815,-0.952885,0.157811,1.344681,3.170073,3.988296
557,0.900801,-0.976918,-0.620952,-0.053407,-0.950476,0.136929,1.848191,3.799498,4.743636
558,0.900801,-0.976918,-0.620952,-0.04618,-0.949674,0.162628,1.344681,3.547668,4.177094
559,0.905439,-0.967185,-0.613206,-0.055815,-0.956901,0.128898,1.533478,3.044158,4.617721
560,0.905439,-0.974484,-0.626116,-0.060635,-0.954492,0.163433,1.281649,3.421754,4.365891
561,0.896164,-0.952586,-0.610624,-0.05662,-0.951281,0.157811,1.155883,3.295839,4.239976
562,0.886889,-0.957452,-0.623534,-0.049391,-0.952885,0.135323,1.344681,3.547668,4.239976
563,0.891527,-0.952586,-0.633861,-0.057422,-0.960918,0.158613,1.785308,3.547668,4.554689
564,0.891527,-0.952586,-0.633861,-0.058226,-0.960918,0.136127,1.470596,3.295839,4.177094
565,0.900801,-0.969618,-0.639025,-0.05662,-0.94887,0.169053,1.533478,3.547668,4.428923
566,0.891527,-0.964752,-0.639025,-0.050195,-0.957705,0.14978,1.344681,3.736466,3.988296
567,0.884571,-0.969618,-0.615788,-0.054211,-0.955296,0.170659,1.344681,3.925264,4.617721
568,0.884571,-0.972052,-0.633861,-0.0518,-0.954492,0.152991,1.092851,3.358871,4.554689
569,0.891527,-0.969618,-0.615788,-0.048589,-0.959312,0.152991,1.218766,3.421754,4.617721
570,0.896164,-0.964752,-0.641607,-0.042164,-0.966538,0.151384,1.533478,3.673583,4.177094
571,0.896164,-0.964752,-0.641607,-0.047784,-0.964934,0.17869,1.155883,3.358871,4.051179
572,0.891527,-0.959886,-0.641607,-0.059831,-0.956901,0.156204,1.218766,3.358871,4.617721
573,0.886889,-0.967185,-0.602878,-0.043769,-0.960918,0.158613,1.407564,3.547668,4.239976
574,0.889208,-0.955019,-0.628698,-0.055815,-0.95369,0.136127,1.596361,3.799498,4.051179
575,0.898483,-0.964752,-0.626116,-0.050195,-0.964934,0.137733,1.281649,3.673583,3.799498
576,0.896164,-0.959886,-0.597714,-0.052604,-0.966538,0.169857,1.344681,3.610551,4.303008
577,0.896164,-0.959886,-0.597714,-0.059029,-0.94887,0.151384,1.218766,3.484786,3.925264
578,0.891527,-0.957452,-0.641607,-0.058226,-0.958507,0.13452,1.533478,3.358871,4.051179
579,0.889208,-0.964752,-0.628698,-0.058226,-0.945659,0.144158,1.092851,3.484786,4.177094
580,0.879933,-0.962319,-0.636443,-0.050998,-0.960918,0.164235,1.218766,3.736466,4.680604
581,0.884571,-0.964752,-0.613206,-0.055815,-0.958507,0.152189,1.218766,3.358871,4.554689
582,0.879933,-0.969618,-0.595133,-0.048589,-0.963327,0.144158,1.596361,3.421754,3.673583
583,0.882252,-0.976918,-0.613206,-0.063044,-0.946461,0.158613,1.344681,3.421754,4.806519
584,0.882252,-0.976918,-0.613206,-0.045376,-0.962523,0.132111,1.029968,3.610551,4.491806
585,0.884571,-0.964752,-0.602878,-0.042164,-0.958507,0.177888,1.659393,3.484786,4.554689
586,0.884571,-0.969618,-0.597714,-0.029314,-1.063716,0.154598,1.470596,3.421754,6.065369
587,0.891527,-0.969618,-0.61837,-0.066257,-0.959312,0.161022,2.729446,3.358871,5.184263
588,0.882252,-0.972052,-0.615788,-0.048589,-0.928792,0.140945,3.358871,3.547668,3.358871
589,0.884571,-0.974484,-0.600296,-0.061437,-0.941643,0.152991,3.799498,3.673583,4.806519
590,0.884571,-0.974484,-0.600296,-0.038951,-0.949674,0.1554,1.848191,3.610551,3.421754
591,0.884571,-0.974484,-0.610624,-0.0518,-0.968145,0.169857,0.337511,3.484786,5.498976
592,0.882252,-0.974484,-0.60546,-0.055815,-0.964129,0.139338,-1.173019,3.610551,3.736466
593,0.891527,-0.957452,-0.636443,-0.052604,-0.973767,0.123276,-0.228882,3.421754,5.121231
594,0.893845,-0.964752,-0.626116,-0.063044,-0.94325,0.143353,0.778139,3.358871,3.673583
595,0.90312,-0.976918,-0.613206,-0.05662,-0.954492,0.168251,1.974106,3.484786,4.680604
596,0.896164,-0.974484,-0.633861,-0.05662,-0.937628,0.14978,2.225786,3.547668,3.799498
597,0.896164,-0.974484,-0.633861,-0.039754,-0.932808,0.146567,1.785308,3.295839,4.303008
598,0.884571,-0.989084,-0.644189,-0.061437,-0.957705,0.165037,1.092851,3.547668,4.365891
599,0.889208,-0.972052,-0.626116,-0.034936,-0.957705,0.153795,0.337511,3.421754,3.421754
600,0.891527,-0.962319,-0.633861,-0.064651,-0.96172,0.17869,0.526309,3.799498,4.995317
601,0.886889,-0.964752,-0.626116,-0.053407,-0.947265,0.157811,0.904053,3.484786,3.232956
602,0.893845,-0.955019,-0.608042,-0.053407,-0.964129,0.136127,1.659393,3.610551,5.939454
603,0.886889,-0.964752,-0.615788,-0.054211,-0.952885,0.1554,2.036989,3.421754,3.358871
604,0.886889,-0.964752,-0.615788,-0.045376,-0.94887,0.169857,2.414733,3.610551,4.365891
605,0.884571,-0.964752,-0.600296,-0.044573,-0.939234,0.165037,1.533478,3.610551,3.925264
606,0.886889,-0.974484,-0.608042,-0.04136,-0.918353,0.150582,1.155883,3.421754,3.925264
607,0.896164,-0.969618,-0.628698,-0.067864,-0.930399,0.146567,0.841171,3.799498,4.617721
608,0.886889,-0.962319,-0.636443,-0.063044,-0.968949,0.156204,0.337511,3.547668,3.673583
609,0.893845,-0.964752,-0.631279,-0.072682,-0.972965,0.175479,0.966936,3.799498,4.806519
610,0.893845,-0.964752,-0.631279,-0.038951,-0.960918,0.16022,1.722276,3.673583,3.421754
611,0.896164,-0.959886,-0.626116,-0.062242,-0.940839,0.136929,1.974106,3.484786,4.617721
612,0.893845,-0.94772,-0.641607,-0.047784,-0.939234,0.147369,1.848191,3.421754,3.673583
613,0.900801,-0.969618,-0.615788,-0.049391,-0.957705,0.164235,1.596361,3.736466,4.114211
614,0.893845,-0.964752,-0.61837,-0.055815,-0.945659,0.144158,0.715256,3.925264,4.051179
615,0.891527,-0.974484,-0.626116,-0.052604,-0.970554,0.157811,0.904053,3.295839,4.680604
616,0.896164,-0.969618,-0.608042,-0.06706,-0.951281,0.157006,1.218766,3.295839,5.121231
617,0.896164,-0.969618,-0.608042,-0.053407,-0.921566,0.120867,2.100021,3.862381,3.862381
618,0.884571,-0.974484,-0.60546,-0.059029,-0.937628,0.163433,2.981126,3.610551,6.002486
619,0.896164,-0.967185,-0.633861,-0.058226,-0.966538,0.144158,2.666414,3.736466,3.232956
620,0.886889,-0.962319,-0.610624,-0.042967,-0.963327,0.150582,1.659393,3.358871,4.932433
621,0.886889,-0.962319,-0.628698,-0.06706,-0.959312,0.139338,0.652224,3.547668,3.799498
622,0.882252,-0.964752,-0.60546,-0.03092,-0.948067,0.130505,0.400543,3.988296,4.554689
623,0.882252,-0.964752,-0.60546,-0.084728,-0.976176,0.185115,3.421754,1.029968,5.058348
624,0.879933,-0.967185,-0.620952,-0.038149,-0.955296,0.175479,5.624742,-0.795424,3.736466
625,0.889208,-0.969618,-0.61837,-0.074288,-0.956098,0.152991,2.666414,0.022799,5.435944
626,0.884571,-0.959886,-0.597714,-0.050195,-0.939234,0.166644,1.155883,-1.236051,3.799498
627,0.884571,-0.962319,-0.626116,-0.093563,-0.932808,0.159415,1.596361,-3.439039,6.002486
628,0.889208,-0.959886,-0.623534,-0.037345,-0.914337,0.145764,0.526309,-3.942549,2.666414
629,0.893845,-0.976918,-0.633861,-0.042164,-0.952083,0.140945,-8.348674,-7.341504,7.576048
630,0.893845,-0.976918,-0.633861,-0.093563,-0.952083,0.205194,-1.613647,-20.496696,3.232956
631,0.884571,-0.955019,-0.644189,0.004417,-0.926384,0.135323,4.428923,-29.434711,4.239976
632,0.896164,-0.974484,-0.649353,-0.091152,-0.97216,0.172266,3.107041,-37.99498,5.687773
633,0.889208,-0.967185,-0.639025,-0.026905,-0.959312,0.120867,3.925264,-40.575714,0.085831
634,0.872977,-0.969618,-0.602878,-0.068666,-0.95369,0.144158,3.358871,-48.632473,6.757826
635,0.886889,-0.969618,-0.623534,-0.109625,-0.955296,0.115245,2.351701,-53.982586,0.904053
636,0.886889,-0.969618,-0.623534,-0.031723,-0.95369,0.099183,2.288818,-41.645767,4.365891
637,0.889208,-0.959886,-0.662263,-0.091957,-0.964129,0.196359,-0.606626,-37.932098,4.239976
638,0.882252,-0.967185,-0.639025,-0.038951,-0.960114,0.165842,-0.103116,-38.75032,2.666414
639,0.877615,-0.972052,-0.67259,-0.10079,-0.960918,0.12408,-0.103116,-40.197968,5.435944
640,0.872977,-0.964752,-0.651935,-0.02048,-0.933612,0.136127,-1.424849,-28.868168,1.092851
641,0.861384,-0.969618,-0.662263,-0.062242,-1.005088,0.157006,1.407564,-33.148376,6.757826
642,0.877615,-0.964752,-0.67259,-0.04136,-0.975373,0.116049,2.855361,-33.525974,0.400543
643,0.877615,-0.964752,-0.67259,-0.045376,-0.95369,0.179495,3.421754,-36.547333,5.561858
644,0.859065,-0.974484,-0.675172,-0.079106,-0.959312,0.162628,2.918243,-37.617386,2.288818
645,0.854428,-0.974484,-0.698409,-0.011645,-0.955296,0.167448,1.722276,-35.917908,4.051179
646,0.863703,-0.969618,-0.688082,-0.088743,-0.980191,0.165842,-0.669509,-33.337177,4.365891
647,0.854428,-0.964752,-0.680336,-0.042967,-0.93843,0.133716,-0.291914,-25.469213,1.281649
648,0.849791,-0.959886,-0.690664,-0.067864,-0.970554,0.146567,-1.236051,-30.504763,6.254167
649,0.845153,-0.957452,-0.713901,-0.055013,-0.944052,0.150582,2.666414,-26.853979,1.974106
650,0.845153,-0.957452,-0.713901,-0.038951,-0.944854,0.153795,2.351701,-21.944492,4.932433
651,0.859065,-0.957452,-0.726811,-0.078304,-0.944854,0.112032,0.966936,-28.868168,3.295839
652,0.845153,-0.955019,-0.708737,-0.03092,-0.945659,0.157006,4.114211,-26.728064,3.736466
653,0.849791,-0.969618,-0.708737,-0.059831,-0.958507,0.126489,-0.480711,-27.609318,4.680604
654,0.852109,-0.952586,-0.721647,-0.050195,-0.935217,0.128898,0.337511,-27.420521,2.792329
655,0.849791,-0.962319,-0.711319,-0.057422,-0.960918,0.153795,0.337511,-33.085495,4.114211
656,0.849791,-0.962319,-0.711319,-0.050998,-0.979389,0.135323,1.596361,-34.470112,3.610551
657,0.838197,-0.957452,-0.713901,-0.055815,-0.952885,0.142551,3.925264,-28.742403,3.547668
658,0.840516,-0.952586,-0.744884,-0.066257,-0.973767,0.173873,1.533478,-33.022465,4.177094
659,0.835879,-0.957452,-0.724229,-0.050998,-0.967342,0.159415,1.155883,-39.883255,3.673583
660,0.835879,-0.955019,-0.711319,-0.048589,-0.966538,0.151384,-0.228882,-34.344345,3.610551
661,0.824286,-0.955019,-0.742302,-0.063044,-0.964129,0.142551,1.659393,-32.330154,3.484786
662,0.831241,-0.962319,-0.742302,-0.050998,-0.955296,0.138536,-0.795424,-34.092514,2.981126
663,0.831241,-0.962319,-0.742302,-0.063044,-0.964129,0.133716,0.148714,-39.757492,4.177094
664,0.819648,-0.952586,-0.742302,-0.064651,-0.957705,0.140142,2.225786,-39.25383,3.358871
665,0.821967,-0.962319,-0.755212,-0.071879,-0.944052,0.144158,3.107041,-28.553455,3.799498
666,0.808055,-0.94772,-0.762957,-0.04618,-0.956098,0.145764,2.855361,-21.56675,3.988296
667,0.819648,-0.962319,-0.755212,-0.055815,-0.959312,0.151384,0.778139,-22.448004,4.177094
668,0.810373,-0.942854,-0.724229,-0.061437,-0.952083,0.194752,-1.613647,-22.8256,3.673583
669,0.810373,-0.942854,-0.724229,-0.072682,-0.95369,0.198768,-2.054274,-27.231724,3.799498
670,0.810373,-0.957452,-0.781031,-0.063848,-0.968145,0.148173,-0.858307,-32.078327,3.673583
671,0.819648,-0.94772,-0.788777,-0.079106,-0.949674,0.14978,1.092851,-34.21843,3.547668
672,0.805736,-0.955019,-0.778449,-0.065453,-0.948067,0.168251,2.603531,-38.435608,3.736466
673,0.808055,-0.962319,-0.755212,-0.073484,-0.949674,0.14496,3.232956,-37.365555,3.044158
674,0.796461,-0.969618,-0.778449,-0.046982,-0.960114,0.150582,3.358871,-38.120895,3.421754
675,0.794143,-0.957452,-0.801686,-0.045376,-0.986618,0.169857,1.092851,-34.281315,4.114211
676,0.794143,-0.957452,-0.801686,-0.067864,-0.92317,0.148975,1.155883,-32.896549,2.918243
677,0.794143,-0.957452,-0.812014,-0.067864,-0.970554,0.176281,-2.872497,-39.065033,3.673583
678,0.775593,-0.962319,-0.801686,-0.042967,-0.956098,0.105608,-2.809614,-45.611115,3.925264
679,0.784868,-0.964752,-0.80685,-0.013252,-0.980995,0.116049,2.603531,-47.499538,3.988296
680,0.775593,-0.969618,-0.80685,-0.074288,-0.985011,0.1554,3.044158,-43.156445,3.925264
681,0.775593,-0.959886,-0.799104,-0.01807,-0.968949,0.161826,3.484786,-47.625305,4.177094
682,0.775593,-0.959886,-0.799104,-0.065453,-0.936021,0.133716,2.729446,-48.191845,4.995317
683,0.761681,-0.962319,-0.832669,-0.065453,-0.932808,0.142551,2.351701,-47.184826,2.351701
684,0.757044,-0.967185,-0.830087,-0.084728,-0.944052,0.159415,-0.103116,-42.904617,3.421754
685,0.752407,-0.967185,-0.814596,-0.049391,-0.932006,0.179495,-1.110137,-40.890427,2.729446
686,0.745451,-0.967185,-0.837833,-0.067864,-0.963327,0.131307,0.337511,-42.589905,4.114211
687,0.745451,-0.964752,-0.850743,-0.043769,-0.964129,0.092759,-3.376156,-53.604992,2.288818
688,0.743132,-0.979351,-0.863652,-0.042164,-0.950476,0.14496,0.211596,-55.430382,3.610551
689,0.743132,-0.979351,-0.863652,-0.069468,-0.936021,0.171464,6.569028,-53.667873,3.358871
690,0.738495,-0.976918,-0.850743,-0.049391,-0.95369,0.174675,5.247146,-44.415295,3.421754
691,0.738495,-0.981784,-0.86107,-0.047784,-0.959312,0.170659,1.722276,-45.04472,4.051179
692,0.733858,-0.959886,-0.86107,-0.03092,-0.952083,0.14978,2.351701,-40.449799,4.114211
693,0.731539,-0.979351,-0.886889,-0.077499,-0.94887,0.181903,-1.676679,-44.54121,3.862381
694,0.719945,-0.959886,-0.845579,-0.053407,-0.940037,0.131307,-2.683699,-47.877132,2.855361
695,0.722264,-0.972052,-0.840415,-0.096774,-0.931201,0.120065,-4.383177,-51.716717,3.673583
696,0.722264,-0.972052,-0.840415,-0.046982,-0.960918,0.124883,0.211596,-52.283257,3.547668
697,0.717627,-0.955019,-0.881726,-0.07509,-0.933612,0.157811,3.610551,-40.261002,4.617721
698,0.701396,-0.962319,-0.876562,-0.046982,-0.93843,0.14978,7.072538,-28.049946,3.484786
699,0.696759,-0.967185,-0.863652,-0.065453,-0.940037,0.14978,4.428923,-24.776905,4.743636
700,0.699078,-0.959886,-0.897217,-0.055013,-0.948067,0.173873,3.736466,-24.210363,2.792329
701,0.689803,-0.959886,-0.897217,-0.055815,-0.949674,0.195556,-3.627837,-24.336279,4.491806
702,0.689803,-0.959886,-0.897217,-0.055013,-0.957705,0.112032,-3.502071,-27.92403,3.421754
703,0.687484,-0.959886,-0.902381,-0.0518,-0.956098,0.131307,-3.250241,-29.119999,4.428923
704,0.671253,-0.957452,-0.915291,-0.077499,-0.928792,0.165842,1.092851,-34.847855,2.918243
705,0.685165,-0.957452,-0.902381,-0.055013,-0.944854,0.119261,5.058348,-42.401104,3.232956
706,0.680528,-0.952586,-0.902381,-0.07509,-0.944854,0.189132,6.757826,-43.78587,3.295839
707,0.668935,-0.962319,-0.892054,-0.026905,-0.965736,0.12408,7.009506,-36.610214,3.610551
708,0.673572,-0.962319,-0.9282,-0.077499,-0.954492,0.196359,-0.858307,-38.813354,3.610551
709,0.673572,-0.962319,-0.9282,-0.048589,-0.919155,0.165037,-2.243072,-35.729111,2.729446
710,0.673572,-0.950153,-0.902381,-0.073484,-0.937628,0.159415,-2.117306,-36.73613,4.428923
711,0.671253,-0.964752,-0.902381,-0.049391,-0.951281,0.162628,-1.110137,-32.518951,3.673583
712,0.64343,-0.955019,-0.925619,-0.0518,-0.963327,0.156204,1.722276,-26.728064,4.303008
713,0.636473,-0.967185,-0.933364,-0.061437,-0.952083,0.152991,3.736466,-24.776905,4.051179
714,0.641111,-0.959886,-0.933364,-0.068666,-0.937628,0.180297,2.351701,-27.042925,3.421754
715,0.641111,-0.959886,-0.933364,-0.04618,-0.950476,0.147369,5.310029,-27.987062,3.673583
716,0.634155,-0.967185,-0.899799,-0.052604,-0.944854,0.156204,1.092851,-27.735233,4.932433
717,0.634155,-0.957452,-0.920454,-0.050195,-0.980191,0.169053,-1.676679,-29.686541,2.225786
718,0.620243,-0.957452,-0.915291,-0.044573,-0.92799,0.14978,0.652224,-28.868168,3.925264
719,0.617924,-0.959886,-0.935946,-0.076697,-0.944052,0.148173,-1.676679,-26.476383,3.547668
720,0.617924,-0.955019,-0.938528,-0.0518,-0.958507,0.146567,0.400543,-26.476383,3.610551
721,0.622562,-0.950153,-0.943692,-0.07509,-0.952885,0.166644,2.225786,-26.979893,4.995317
722,0.622562,-0.950153,-0.943692,-0.052604,-0.945659,0.148975,5.813688,-24.839788,2.351701
723,0.620243,-0.959886,-0.954019,-0.068666,-0.960918,0.162628,4.428923,-24.08445,5.247146
724,0.615606,-0.952586,-0.959183,-0.053407,-0.959312,0.18351,1.344681,-24.08445,2.918243
725,0.604012,-0.955019,-0.954019,-0.054211,-0.94325,0.140142,-0.040084,-19.615591,5.373061
726,0.599375,-0.952586,-0.956602,-0.060635,-0.989829,0.184312,-1.298934,-18.104912,3.044158
727,0.606331,-0.957452,-0.923037,-0.055815,-0.946461,0.148173,-2.180189,-18.608421,4.303008
728,0.606331,-0.957452,-0.923037,-0.068666,-0.933612,0.137733,0.966936,-24.588108,3.421754
729,0.597056,-0.945287,-0.943692,-0.043769,-0.916746,0.137733,1.344681,-26.66518,3.610551
730,0.597056,-0.957452,-0.930782,-0.050998,-0.955296,0.157006,0.148714,-28.427542,4.177094
731,0.599375,-0.959886,-0.925619,-0.04136,-0.960918,0.152991,6.002486,-21.503866,3.547668
732,0.597056,-0.957452,-0.948856,-0.078304,-0.971358,0.159415,4.177094,-19.174963,4.932433
733,0.585463,-0.959886,-0.948856,-0.033329,-0.960114,0.181903,1.911074,-21.377951,3.232956
734,0.583144,-0.962319,-0.946274,-0.045376,-0.964129,0.148975,-1.739562,-21.56675,6.443113
735,0.583144,-0.962319,-0.946274,-0.043769,-0.94325,0.143353,-2.998412,-21.000355,2.414733
736,0.592419,-0.957452,-0.951438,-0.055815,-0.947265,0.150582,0.715256,-22.573917,4.932433
737,0.587782,-0.955019,-0.948856,-0.079106,-0.956901,0.147369,0.337511,-25.595129,3.547668
738,0.578507,-0.959886,-0.964347,-0.022085,-0.974569,0.148173,2.666414,-26.728064,4.051179
739,0.583144,-0.957452,-0.964347,-0.07991,-0.960114,0.150582,4.491806,-33.463089,4.365891
740,0.562276,-0.950153,-0.946274,-0.054211,-0.948067,0.200374,0.966936,-31.071306,2.981126
741,0.564595,-0.957452,-0.938528,-0.053407,-0.920762,0.152189,2.855361,-27.294605,5.373061
742,0.564595,-0.957452,-0.938528,-0.043769,-0.94887,0.157006,1.848191,-30.819473,2.414733
743,0.559958,-0.955019,-0.959183,-0.040558,-0.944854,0.135323,0.652224,-32.581837,4.617721
744,0.553001,-0.957452,-0.946274,-0.062242,-0.949674,0.14978,-0.984222,-27.105808,3.547668
745,0.550683,-0.94772,-0.972093,-0.058226,-0.935217,0.131307,-0.921339,-24.902821,4.114211
746,0.543727,-0.945287,-0.979839,-0.082319,-0.96172,0.168251,4.617721,-29.812304,3.925264
747,0.53909,-0.952586,-0.985003,-0.047784,-0.994648,0.146567,1.344681,-38.183777,3.799498
748,0.53909,-0.952586,-0.985003,-0.048589,-0.956901,0.152189,3.547668,-41.645767,3.925264
749,0.534452,-0.955019,-0.990166,-0.064651,-0.954492,0.135323,3.044158,-43.722839,2.855361
750,0.525178,-0.950153,-0.987584,-0.055013,-0.989829,0.161826,1.092851,-50.772579,3.988296
751,0.527496,-0.950153,-0.966929,-0.063848,-0.962523,0.150582,-0.606626,-60.780495,3.107041
752,0.518222,-0.950153,-0.974675,-0.039754,-0.976176,0.142551,1.407564,-60.151073,3.421754
753,0.508947,-0.950153,-0.972093,-0.040558,-0.959312,0.19395,3.295839,-55.745094,4.239976
754,0.50431,-0.952586,-0.990166,-0.046982,-0.901487,0.159415,-3.879666,-48.569592,5.247146
755,0.50431,-0.952586,-0.990166,-0.040558,-0.949674,0.157006,0.274628,-47.877132,3.107041
756,0.492716,-0.957452,-0.969511,-0.036542,-0.95369,0.146567,2.162904,-45.611115,4.869551
757,0.495035,-0.952586,-0.990166,-0.055013,-0.965736,0.186721,3.107041,-42.589905,2.729446
758,0.483442,-0.952586,-1.015986,-0.036542,-0.934415,0.16022,2.729446,-42.275192,3.799498
759,0.476486,-0.959886,-1.023731,-0.049391,-0.944854,0.175479,0.841171,-43.408127,4.114211
760,0.476486,-0.959886,-0.987584,-0.030116,-0.960114,0.203587,-0.795424,-45.925827,3.736466
761,0.476486,-0.959886,-0.987584,-0.065453,-0.947265,0.1554,-0.165999,-48.191845,3.925264
762,0.462574,-0.957452,-0.990166,-0.083121,-0.964934,0.172266,-3.439039,-59.836357,2.162904
763,0.464892,-0.945287,-1.023731,-0.035738,-0.94325,0.169857,0.022799,-69.655624,3.421754
764,0.446343,-0.957452,-1.023731,-0.06706,-0.950476,0.140142,4.869551,-70.914474,3.232956
765,0.444024,-0.94042,-1.005658,-0.058226,-0.954492,0.145764,5.498976,-61.221123,3.044158
766,0.432431,-0.945287,-1.005658,-0.048589,-0.940037,0.162628,4.743636,-57.696255,4.051179
767,0.420838,-0.950153,-1.003076,-0.063044,-0.939234,0.165037,2.100021,-47.940018,2.729446
768,0.420838,-0.950153,-1.003076,-0.048589,-0.950476,0.157811,-0.732541,-45.04472,3.799498
769,0.418519,-0.952586,-1.003076,-0.039754,-0.958507,0.181099,-1.676679,-44.415295,3.799498
770,0.406926,-0.94772,-0.997912,-0.052604,-0.945659,0.152991,-1.110137,-50.017239,3.107041
771,0.390695,-0.952586,-1.00824,-0.057422,-0.949674,0.123276,0.022799,-47.940018,3.295839
772,0.39997,-0.952586,-1.00824,-0.046982,-0.984207,0.128898,4.491806,-50.898491,2.918243
773,0.383739,-0.959886,-1.023731,-0.078304,-0.946461,0.184312,5.813688,-49.828442,4.051179
774,0.383739,-0.959886,-1.023731,-0.057422,-0.940839,0.13452,5.750656,-53.479076,2.414733
775,0.372146,-0.950153,-1.015986,-0.055815,-0.98742,0.159415,2.603531,-53.856819,4.428923
776,0.362871,-0.957452,-1.010822,-0.042164,-0.94325,0.194752,0.715256,-49.010067,3.547668
777,0.360552,-0.959886,-1.000494,-0.061437,-0.922368,0.157811,-0.795424,-50.269066,3.547668
778,0.358234,-0.955019,-1.015986,-0.055013,-0.94887,0.180297,-1.991391,-51.464886,3.484786
779,0.353596,-0.955019,-0.99533,-0.045376,-0.973767,0.161826,-0.040084,-58.766308,3.547668
780,0.344322,-0.962319,-0.974675,-0.054211,-0.968145,0.18351,0.841171,-58.199913,3.799498
781,0.344322,-0.962319,-0.974675,-0.048589,-0.96172,0.162628,2.603531,-60.465782,2.351701
782,0.344322,-0.959886,-0.99533,-0.055013,-0.966538,0.140142,4.995317,-58.073997,4.114211
783,0.323454,-0.967185,-1.003076,-0.066257,-0.994648,0.158613,3.044158,-54.989754,3.610551
784,0.321135,-0.972052,-1.005658,-0.038149,-0.958507,0.179495,1.155883,-52.409023,2.792329
785,0.304904,-0.972052,-1.026313,-0.080712,-0.936021,0.161022,-0.543594,-52.346142,3.547668
786,0.29563,-0.964752,-1.018567,-0.062242,-0.935217,0.159415,-1.865476,-55.556297,2.477616
787,0.293311,-0.962319,-1.00824,-0.079106,-0.937628,0.141749,-0.291914,-55.87101,4.806519
788,0.293311,-0.962319,-1.00824,-0.045376,-0.994648,0.12408,1.785308,-54.108501,2.855361
789,0.281718,-0.955019,-1.028895,-0.049391,-0.960918,0.165842,3.232956,-47.184826,4.365891
790,0.263168,-0.962319,-1.018567,-0.055815,-0.968949,0.12167,3.736466,-45.73703,4.114211
791,0.26085,-0.962319,-1.00824,-0.046982,-0.967342,0.173068,3.044158,-50.583778,3.170073
792,0.263168,-0.962319,-1.015986,-0.061437,-0.947265,0.17869,1.029968,-59.773479,3.736466
793,0.246938,-0.969618,-1.013404,-0.036542,-0.968145,0.200374,0.841171,-58.577507,2.603531
794,0.246938,-0.969618,-1.013404,-0.033329,-0.962523,0.168251,-0.040084,-52.094311,4.491806
795,0.244619,-0.962319,-1.00824,-0.05662,-0.947265,0.173068,0.022799,-54.486244,3.107041
796,0.235345,-0.976918,-1.023731,-0.050195,-0.944052,0.137733,1.344681,-54.61216,3.736466
797,0.239982,-0.967185,-1.005658,-0.063848,-0.944052,0.138536,2.792329,-46.99588,2.981126
798,0.230707,-0.964752,-1.018567,-0.038149,-0.95369,0.137733,2.477616,-39.316864,3.232956
799,0.237663,-0.964752,-1.010822,-0.049391,-0.957705,0.171464,3.610551,-30.064137,4.743636
800,0.219114,-0.964752,-1.005658,-0.0518,-0.94887,0.181099,1.785308,-28.868168,3.107041
801,0.219114,-0.964752,-1.005658,-0.044573,-0.96172,0.169857,-0.354797,-32.707752,4.365891
802,0.207521,-0.967185,-0.985003,-0.032527,-0.97216,0.174675,-0.606626,-35.854877,3.044158
803,0.207521,-0.972052,-1.02115,-0.047784,-0.964934,0.165037,0.085831,-40.261002,4.617721
804,0.19129,-0.969618,-1.034059,-0.04136,-0.960114,0.1297,1.470596,-35.414398,3.547668
805,0.195927,-0.969618,-1.018567,-0.039754,-0.960918,0.170659,3.358871,-29.812304,4.239976
806,0.195927,-0.962319,-1.005658,-0.0518,-0.958507,0.142551,3.610551,-26.791096,3.799498
807,0.195927,-0.962319,-1.005658,-0.042164,-0.939234,0.180297,1.974106,-30.315966,3.044158
808,0.200565,-0.972052,-1.010822,-0.064651,-0.960114,0.16022,1.155883,-32.204239,4.177094
809,0.19129,-0.974484,-1.013404,-0.032527,-0.965736,0.158613,0.085831,-32.078327,3.736466
810,0.182015,-0.967185,-0.979839,-0.060635,-0.951281,0.161022,-0.040084,-29.560625,3.610551
811,0.182015,-0.972052,-1.018567,-0.055013,-0.944854,0.157006,1.092851,-26.413351,3.421754
812,0.170422,-0.969618,-1.013404,-0.059831,-0.940037,0.140945,1.029968,-28.994085,4.051179
813,0.175059,-0.976918,-1.015986,-0.048589,-0.960114,0.157811,1.785308,-28.616488,4.114211
814,0.175059,-0.976918,-1.015986,-0.042967,-0.964934,0.175479,2.225786,-29.119999,3.610551
815,0.163466,-0.964752,-1.000494,-0.044573,-0.960114,0.167448,2.477616,-24.399162,4.239976
816,0.161147,-0.979351,-0.99533,-0.033329,-0.960114,0.173068,1.722276,-22.007376,3.484786
817,0.15651,-0.981784,-0.979839,-0.042164,-0.955296,0.164235,0.337511,-24.14748,4.491806
818,0.15651,-0.972052,-0.979839,-0.071075,-0.939234,0.166644,-0.291914,-26.350468,3.862381
819,0.140279,-0.976918,-1.010822,-0.045376,-0.95369,0.168251,0.148714,-31.574818,3.862381
820,0.140279,-0.976918,-1.010822,-0.059029,-0.952885,0.120065,1.659393,-34.281315,4.051179
821,0.144917,-0.972052,-0.985003,-0.049391,-0.951281,0.169857,3.044158,-31.260103,2.981126
822,0.13796,-0.979351,-0.977257,-0.040558,-0.951281,0.156204,3.044158,-35.351364,3.673583
823,0.128686,-0.969618,-1.000494,-0.067864,-0.952885,0.137733,2.351701,-38.246811,3.421754
824,0.124049,-0.972052,-0.982421,-0.062242,-0.935217,0.14978,0.904053,-40.575714,2.855361
825,0.128686,-0.969618,-0.982421,-0.039754,-0.970554,0.172266,0.211596,-46.744198,3.925264
826,0.112455,-0.969618,-0.977257,-0.023692,-0.956098,0.151384,0.274628,-48.947186,2.855361
827,0.112455,-0.969618,-0.977257,-0.037345,-0.95369,0.14978,1.281649,-43.974667,3.673583
828,0.096225,-0.972052,-0.979839,-0.047784,-0.968145,0.156204,2.100021,-37.617386,4.617721
829,0.100862,-0.976918,-1.005658,-0.032527,-0.962523,0.18351,2.288818,-41.393936,3.484786
830,0.096225,-0.976918,-0.969511,-0.044573,-0.959312,0.158613,2.288818,-42.023361,3.547668
831,0.082313,-0.984217,-0.985003,-0.052604,-0.945659,0.156204,1.344681,-43.911636,3.170073
832,0.096225,-0.972052,-0.969511,-0.042967,-0.948067,0.165842,1.407564,-41.079224,3.547668
833,0.079994,-0.976918,-0.972093,-0.052604,-0.947265,0.156204,0.526309,-35.225452,3.736466
834,0.079994,-0.976918,-0.972093,-0.049391,-0.950476,0.150582,0.904053,-33.840687,4.114211
835,0.079994,-0.976918,-0.982421,-0.04618,-0.959312,0.14978,1.029968,-35.854877,3.862381
836,0.066082,-0.976918,-0.956602,-0.05662,-0.945659,0.162628,1.344681,-35.729111,3.358871
837,0.075357,-0.979351,-0.959183,-0.037345,-0.948067,0.159415,2.100021,-36.673248,3.610551
838,0.066082,-0.991517,-0.966929,-0.046982,-0.956901,0.136929,1.659393,-39.379745,3.232956
839,0.059126,-0.976918,-0.961765,-0.049391,-0.940839,0.148975,1.533478,-37.932098,3.421754
840,0.059126,-0.976918,-0.961765,-0.035738,-0.960918,0.143353,1.092851,-36.23262,3.232956
841,0.056807,-0.986651,-0.951438,-0.035738,-0.949674,0.154598,0.652224,-37.302673,3.988296
842,0.040577,-0.979351,-0.979839,-0.040558,-0.955296,0.158613,-0.228882,-38.498642,3.862381
843,0.047533,-0.979351,-0.969511,-0.044573,-0.944052,0.136127,0.652224,-36.043823,3.736466
844,0.045214,-0.976918,-0.964347,-0.04136,-0.985813,0.152189,1.848191,-33.274292,5.247146
845,0.031302,-0.984217,-0.964347,-0.057422,-0.944052,0.142551,2.162904,-29.749426,3.988296
846,0.033621,-0.981784,-0.964347,-0.027707,-0.957705,0.153795,2.225786,-28.490574,3.736466
847,0.033621,-0.981784,-0.964347,-0.043769,-0.970554,0.158613,1.533478,-26.098639,4.932433
848,0.022027,-0.979351,-0.954019,-0.050998,-0.959312,0.152991,1.092851,-22.133291,3.295839
849,0.022027,-0.979351,-0.990166,-0.042164,-0.960918,0.152189,0.966936,-19.741356,4.932433
850,0.01739,-0.979351,-0.943692,-0.046982,-0.956098,0.127292,0.148714,-18.86025,3.799498
851,0.01739,-0.99395,-0.94111,-0.036542,-0.960114,0.140945,0.463426,-16.468317,3.610551
852,0.01739,-0.986651,-0.959183,-0.046982,-0.952885,0.157006,0.966936,-15.209465,4.177094
853,0.01739,-0.986651,-0.959183,-0.039754,-0.942445,0.1554,1.533478,-11.307001,2.981126
854,0.019709,-0.981784,-0.933364,-0.050195,-0.964129,0.166644,1.974106,-12.502968,4.680604
855,0.022027,-0.981784,-0.9282,-0.042967,-0.981798,0.175479,1.470596,-13.761818,3.673583
856,0.012753,-0.991517,-0.935946,-0.047784,-0.957705,0.166644,1.281649,-13.447105,4.680604
857,0.008115,-0.986651,-0.946274,-0.039754,-0.972965,0.174675,1.533478,-14.894754,4.051179
858,0.005797,-0.986651,-0.969511,-0.050998,-0.954492,0.174675,1.029968,-15.33538,4.554689
859,0.008115,-0.99395,-0.946274,-0.043769,-0.956901,0.148173,0.589341,-19.552559,4.303008
860,0.008115,-0.99395,-0.946274,-0.035738,-0.960114,0.173068,0.966936,-23.706854,4.428923
861,0.003478,-0.996383,-0.925619,-0.04136,-0.960918,0.161022,1.533478,-25.028736,3.925264
862,-0.001159,-1.003683,-0.935946,-0.050195,-0.93843,0.152991,1.218766,-28.679371,3.547668
863,-0.001159,-1.006116,-0.933364,-0.063848,-0.944052,0.189132,0.148714,-34.155399,2.918243
864,-0.003478,-0.991517,-0.938528,-0.042967,-0.959312,0.145764,0.778139,-37.932098,5.498976
865,-0.005797,-0.99395,-0.933364,-0.05662,-0.964934,0.157811,1.155883,-41.205139,2.918243
866,-0.005797,-0.99395,-0.933364,-0.068666,-0.952885,0.169053,0.526309,-42.023361,4.365891
867,-0.015071,-0.99395,-0.920454,-0.021283,-0.948067,0.153795,0.904053,-38.813354,2.792329
868,-0.022027,-0.99395,-0.930782,-0.045376,-0.968949,0.170659,0.463426,-39.694458,5.373061
869,-0.022027,-0.99395,-0.925619,-0.059831,-0.948067,0.146567,1.218766,-39.757492,3.170073
870,-0.026665,-0.996383,-0.930782,-0.057422,-0.941643,0.169857,0.841171,-43.408127,4.239976
871,-0.031302,-0.998816,-0.915291,-0.034132,-0.960114,0.165037,0.966936,-45.107605,3.925264
872,-0.033621,-0.998816,-0.902381,-0.047784,-0.968145,0.140945,-0.040084,-46.618282,4.617721
873,-0.033621,-0.998816,-0.902381,-0.034936,-0.94325,0.148975,1.155883,-46.99588,2.855361
874,-0.045214,-1.001249,-0.876562,-0.047784,-0.949674,0.172266,2.162904,-46.30357,4.680604
875,-0.045214,-0.989084,-0.902381,-0.068666,-0.95369,0.157006,2.351701,-52.975567,3.358871
876,-0.05217,-0.991517,-0.915291,-0.052604,-0.945659,0.166644,1.218766,-56.563316,3.925264
877,-0.059126,-0.998816,-0.894635,-0.058226,-0.932808,0.152991,0.274628,-59.269966,3.799498
878,-0.066082,-0.996383,-0.904963,-0.039754,-0.936823,0.140945,0.022799,-62.039497,3.799498
879,-0.056807,-1.001249,-0.907545,-0.042164,-0.960918,0.132914,0.022799,-61.032326,4.554689
880,-0.056807,-1.001249,-0.907545,-0.026905,-0.916746,0.150582,0.841171,-52.660854,4.051179
881,-0.077675,-1.001249,-0.915291,-0.049391,-1.000269,0.128898,3.358871,-40.449799,5.184263
882,-0.079994,-0.991517,-0.899799,-0.05662,-0.955296,0.146567,2.100021,-29.245914,4.303008
883,-0.082312,-0.99395,-0.881726,-0.053407,-0.942445,0.169857,2.225786,-28.994085,4.806519
884,-0.08695,-0.996383,-0.879144,-0.04618,-0.944052,0.157811,1.218766,-30.315966,4.177094
885,-0.084631,-1.010982,-0.879144,-0.047784,-0.975373,0.161022,0.400543,-32.141209,3.925264
886,-0.084631,-1.010982,-0.879144,-0.059831,-0.970554,0.159415,-0.732541,-39.25383,4.365891
887,-0.084631,-1.013415,-0.868816,-0.064651,-0.960114,0.157006,-0.669509,-45.233517,4.051179
888,-0.093906,-1.006116,-0.850743,-0.059831,-0.957705,0.157006,0.841171,-48.506557,4.303008
889,-0.105499,-1.001249,-0.876562,-0.067864,-0.974569,0.169053,1.533478,-53.038448,5.813688
890,-0.112455,-1.010982,-0.848161,-0.059831,-0.956098,0.145764,1.911074,-53.290279,4.806519
891,-0.103181,-1.010982,-0.853325,0.037345,-1.005891,0.139338,6.191283,-42.589905,3.421754
892,-0.100862,-1.006116,-0.850743,-0.103199,-0.968949,0.170659,5.939454,-26.539267,7.135421
893,-0.100862,-1.006116,-0.850743,-0.014054,-0.935217,0.165842,2.666414,-18.608421,-1.676679
894,-0.12173,-1.008549,-0.850743,-0.050195,-0.948067,0.208405,-1.487881,-20.559729,8.772016
895,-0.114774,-1.003683,-0.827505,-0.074288,-0.956098,0.197163,-2.809614,-22.448004,-0.165999
896,-0.128686,-1.013415,-0.850743,0.00281,-0.940839,0.165842,-2.998412,-29.749426,6.002486
897,-0.124048,-1.013415,-0.855907,-0.102396,-0.962523,0.148173,-0.858307,-36.673248,4.114211
898,-0.131004,-1.013415,-0.848161,-0.002812,-0.941643,0.12408,1.533478,-44.54121,1.848191
899,-0.131004,-1.013415,-0.848161,-0.074288,-0.963327,0.184312,4.743636,-44.289379,6.128401
900,-0.131004,-1.023148,-0.837833,-0.061437,-0.974569,0.159415,4.806519,-45.862942,1.344681
901,-0.144917,-1.010982,-0.817178,-0.02048,-0.96172,0.162628,3.107041,-42.023361,4.932433
902,-0.140279,-1.023148,-0.801686,-0.083121,-0.956098,0.179495,1.029968,-40.072205,4.177094
903,-0.140279,-1.028014,-0.814596,-0.028511,-0.941643,0.19395,-1.487881,-39.946289,2.162904
904,-0.147235,-1.030447,-0.814596,-0.049391,-0.964934,0.146567,-1.739562,-41.897446,6.128401
905,-0.147235,-1.020715,-0.814596,-0.038149,-0.956901,0.123276,0.211596,-36.358536,2.603531
906,-0.147235,-1.020715,-0.814596,-0.011645,-0.952885,0.128096,2.729446,-27.67235,4.365891
907,-0.144917,-1.020715,-0.788777,-0.058226,-0.965736,0.169053,4.177094,-28.364658,4.303008
908,-0.154191,-1.018282,-0.830087,-0.050998,-0.941643,0.189934,3.547668,-30.378847,2.729446
909,-0.151873,-1.018282,-0.835251,-0.068666,-0.952083,0.177888,1.785308,-38.309692,4.995317
910,-0.154191,-1.015849,-0.81976,-0.054211,-0.958507,0.169053,-0.103116,-42.086391,2.981126
911,-0.168103,-1.020715,-0.81976,-0.034132,-0.978585,0.152991,-0.921339,-41.079224,5.624742
912,-0.168103,-1.020715,-0.81976,-0.034132,-0.960918,0.169857,0.148714,-37.239639,3.547668
913,-0.163466,-1.023148,-0.796522,-0.055815,-0.952885,0.175479,1.911074,-36.358536,4.995317
914,-0.158828,-1.030447,-0.814596,-0.042164,-0.972965,0.148975,2.477616,-36.358536,4.114211
915,-0.170422,-1.030447,-0.837833,-0.021283,-0.954492,0.172266,2.918243,-33.71492,3.295839
916,-0.175059,-1.018282,-0.796522,-0.049391,-0.942445,0.136127,2.288818,-28.427542,4.051179
917,-0.179696,-1.025581,-0.809432,-0.059831,-0.944052,0.196359,1.218766,-31.511786,2.918243
918,-0.188971,-1.025581,-0.788777,-0.00763,-0.952885,0.145764,-0.606626,-39.568542,5.310029
919,-0.188971,-1.025581,-0.788777,-0.02048,-0.968145,0.128096,-0.669509,-43.156445,3.610551
920,-0.184334,-1.030447,-0.791359,-0.050998,-0.964934,0.154598,-0.228882,-40.953308,4.114211
921,-0.186653,-1.020715,-0.775867,-0.074288,-0.956098,0.173873,0.400543,-38.687439,4.051179
922,-0.193609,-1.023148,-0.788777,-0.037345,-0.945659,0.148975,2.100021,-41.708649,3.799498
923,-0.19129,-1.025581,-0.799104,-0.035738,-0.95369,0.173873,2.603531,-40.764511,4.554689
924,-0.198246,-1.028014,-0.773285,-0.0518,-0.972965,0.164235,2.666414,-41.393936,4.303008
925,-0.198246,-1.028014,-0.773285,-0.038951,-0.968949,0.150582,1.596361,-40.890427,3.421754
926,-0.209839,-1.04018,-0.783613,-0.043769,-0.959312,0.147369,1.218766,-33.903717,3.925264
927,-0.202883,-1.023148,-0.760376,-0.038951,-0.947265,0.173873,0.400543,-30.315966,2.918243
928,-0.209839,-1.030447,-0.757794,-0.049391,-0.952083,0.136929,0.274628,-30.190052,4.743636
929,-0.20752,-1.035314,-0.773285,-0.035738,-0.954492,0.141749,0.904053,-32.455921,3.107041
930,-0.209839,-1.037747,-0.765539,-0.066257,-0.956098,0.161826,1.533478,-33.966602,4.554689
931,-0.219114,-1.037747,-0.760376,-0.035738,-0.944854,0.170659,1.911074,-32.204239,3.358871
932,-0.219114,-1.037747,-0.760376,-0.038951,-0.958507,0.162628,2.288818,-25.154501,3.925264
933,-0.209839,-1.032881,-0.760376,-0.049391,-0.94887,0.172266,1.092851,-29.812304,3.862381
934,-0.223751,-1.037747,-0.768121,-0.055815,-0.950476,0.152189,0.778139,-35.603195,3.736466
935,-0.221432,-1.049913,-0.768121,-0.05662,-0.966538,0.173873,0.526309,-41.708649,4.239976
936,-0.221432,-1.045047,-0.747466,-0.033329,-0.958507,0.140142,1.092851,-41.897446,2.981126
937,-0.235344,-1.04748,-0.73972,-0.045376,-0.954492,0.148173,1.722276,-41.456966,4.303008
938,-0.235344,-1.052346,-0.731974,-0.036542,-0.966538,0.181099,1.722276,-39.002151,2.918243
939,-0.235344,-1.052346,-0.731974,-0.0518,-0.952083,0.152991,1.848191,-36.73613,3.610551
940,-0.233026,-1.045047,-0.731974,-0.063044,-0.93843,0.146567,1.344681,-40.512829,4.239976
941,-0.22607,-1.032881,-0.731974,-0.029314,-0.962523,0.173873,0.400543,-41.834564,2.855361
942,-0.233026,-1.052346,-0.737138,-0.057422,-0.96172,0.179495,0.526309,-37.050842,4.743636
943,-0.237663,-1.049913,-0.700991,-0.044573,-0.96172,0.13452,0.400543,-39.505661,2.729446
944,-0.2423,-1.042614,-0.719065,-0.022085,-0.952885,0.138536,1.470596,-34.847855,3.862381
945,-0.2423,-1.042614,-0.719065,-0.053407,-0.942445,0.153795,1.155883,-34.344345,3.358871
946,-0.249256,-1.037747,-0.706155,-0.047784,-0.939234,0.177888,1.659393,-33.463089,3.736466
947,-0.256212,-1.04748,-0.713901,-0.067864,-0.944052,0.169053,1.722276,-36.987961,3.925264
948,-0.258531,-1.042614,-0.688082,-0.062242,-0.93843,0.171464,1.533478,-38.561523,3.358871
949,-0.246938,-1.037747,-0.682918,-0.014054,-0.970554,0.154598,0.778139,-31.637699,4.869551
950,-0.253894,-1.045047,-0.682918,-0.039754,-0.969751,0.165842,0.778139,-26.791096,3.421754
951,-0.253894,-1.04748,-0.690664,-0.052604,-0.946461,0.157811,1.344681,-30.064137,4.680604
952,-0.253894,-1.04748,-0.690664,-0.040558,-0.96172,0.156204,0.400543,-28.868168,2.981126
953,-0.251575,-1.042614,-0.688082,-0.022889,-0.962523,0.120867,1.785308,-22.196175,3.799498
954,-0.253894,-1.04748,-0.682918,-0.04136,-0.958507,0.156204,1.218766,-18.419624,4.051179
955,-0.263168,-1.049913,-0.677754,-0.05662,-0.949674,0.17869,2.540499,-19.237846,4.365891
956,-0.253894,-1.054779,-0.667426,-0.038951,-0.977782,0.153795,0.966936,-17.475487,4.051179
957,-0.267806,-1.054779,-0.654517,-0.057422,-0.966538,0.153795,1.155883,-15.398264,3.925264
958,-0.267806,-1.054779,-0.654517,-0.032527,-0.95369,0.158613,0.904053,-15.964806,3.484786
959,-0.267806,-1.04748,-0.667426,-0.047784,-0.962523,0.145764,1.218766,-13.573021,5.561858
960,-0.263168,-1.054779,-0.667426,-0.042164,-0.966538,0.153795,0.652224,-19.237846,2.918243
961,-0.263168,-1.059646,-0.657099,-0.052604,-0.967342,0.174675,0.274628,-23.014545,4.428923
962,-0.265487,-1.049913,-0.675172,-0.048589,-0.960114,0.185115,0.400543,-29.749426,2.351701
963,-0.267806,-1.049913,-0.657099,-0.05662,-0.958507,0.190737,1.344681,-44.163467,4.365891
964,-0.267806,-1.049913,-0.670008,-0.058226,-0.951281,0.195556,1.659393,-51.842628,3.044158
965,-0.267806,-1.049913,-0.670008,-0.038951,-0.964934,0.137733,0.400543,-54.989754,0.337511
966,-0.265487,-1.052346,-0.646771,-0.059831,-0.918353,0.144158,0.085831,-54.800957,5.184263
967,-0.286355,-1.04018,-0.641607,-0.099988,-0.939234,0.09597,0.652224,-51.33897,1.029968
968,-0.281718,-1.059646,-0.651935,-0.099183,-0.954492,0.057422,2.351701,-55.367352,3.862381
969,-0.284036,-1.052346,-0.644189,-0.026101,-0.955296,0.153795,0.841171,-59.773479,3.358871
970,-0.281718,-1.052346,-0.631279,-0.029314,-0.963327,0.140945,2.603531,-51.590801,6.065369
971,-0.293311,-1.049913,-0.589969,-0.061437,-0.956098,0.156204,3.295839,-43.534042,2.477616
972,-0.293311,-1.049913,-0.589969,-0.017267,-0.96172,0.173873,4.177094,-36.987961,3.358871
973,-0.288674,-1.059646,-0.600296,-0.042164,-0.969751,0.126489,0.400543,-25.658161,4.177094
974,-0.288674,-1.059646,-0.615788,-0.038951,-0.964934,0.167448,0.085831,-24.336279,2.100021
975,-0.29563,-1.052346,-0.615788,-0.029314,-0.948067,0.162628,-1.424849,-29.371828,3.107041
976,-0.300267,-1.04748,-0.592551,-0.032527,-0.963327,0.166644,-5.453229,-33.148376,-1.676679
977,-0.288674,-1.052346,-0.620952,-0.03092,-0.913535,0.137733,-4.005581,-32.015442,8.708983
978,-0.288674,-1.052346,-0.620952,-0.087941,-0.96172,0.16022,-2.117306,-31.322989,0.841171
979,-0.302586,-1.059646,-0.597714,-0.022085,-0.954492,0.148975,5.813688,-28.679371,4.869551
980,-0.293311,-1.064512,-0.584805,-0.070273,-0.952885,0.163433,6.443113,-28.049946,5.435944
981,-0.290992,-1.062079,-0.608042,-0.034936,-0.946461,0.177888,5.373061,-27.483404,3.107041
982,-0.293311,-1.066945,-0.574477,-0.006827,-0.960918,0.153795,-0.606626,-21.755547,6.065369
983,-0.290992,-1.062079,-0.589969,-0.07991,-0.945659,0.152991,-2.557784,-16.153605,5.058348
984,-0.29563,-1.057212,-0.571895,-0.024496,-0.94325,0.165842,-2.935529,-14.580041,2.414733
985,-0.29563,-1.057212,-0.571895,-0.054211,-0.942445,0.136929,-1.487881,-16.720146,4.303008
986,-0.281718,-1.057212,-0.592551,-0.050195,-0.957705,0.169857,-0.417829,-20.622612,3.421754
987,-0.288674,-1.054779,-0.592551,-0.034936,-0.939234,0.164235,3.107041,-23.580938,3.547668
988,-0.293311,-1.071811,-0.571895,-0.029314,-0.941643,0.16022,5.121231,-21.881462,4.239976
989,-0.29563,-1.059646,-0.571895,-0.030116,-0.940839,0.154598,4.114211,-22.636801,4.365891
990,-0.297948,-1.062079,-0.571895,-0.050195,-0.94887,0.163433,2.225786,-18.86025,5.813688
991,-0.297948,-1.062079,-0.571895,-0.035738,-0.951281,0.162628,0.148714,-14.07653,4.995317
992,-0.297948,-1.057212,-0.55124,-0.035738,-0.98742,0.161022,0.966936,-11.99931,6.757826
993,-0.290992,-1.069378,-0.569313,-0.027707,-0.969751,0.13452,2.855361,-11.684597,4.869551
994,-0.307223,-1.059646,-0.564149,-0.042164,-0.980191,0.153795,3.925264,-11.684597,3.295839
995,-0.297948,-1.059646,-0.569313,-0.034132,-0.964934,0.168251,4.995317,-13.635903,3.673583
996,-0.302586,-1.059646,-0.556404,-0.061437,-0.960918,0.185919,2.351701,-14.517159,3.484786
997,-0.293311,-1.059646,-0.546076,-0.037345,-0.95369,0.208405,-0.858307,-21.377951,3.044158
998,-0.293311,-1.059646,-0.546076,-0.057422,-0.964934,0.186721,-3.313124,-26.791096,2.603531
999,-0.304904,-1.064512,-0.543494,-0.015661,-0.964934,0.177084,-5.012602,-35.603195,1.659393
1000,-0.302586,-1.059646,-0.543494,-0.006023,-0.948067,0.148173,-2.872497,-36.043823,4.806519
1001,-0.304904,-1.062079,-0.556404,-0.042164,-0.970554,0.131307,-2.620816,-32.39304,3.232956
1002,-0.31186,-1.062079,-0.556404,-0.036542,-0.970554,0.128096,0.966936,-27.546436,4.365891
1003,-0.31186,-1.064512,-0.540912,-0.042164,-0.965736,0.136929,2.918243,-25.658161,3.484786
1004,-0.31186,-1.064512,-0.540912,-0.042164,-0.971358,0.152991,6.569028,-24.525076,4.428923
1005,-0.309542,-1.071811,-0.517675,-0.055013,-0.934415,0.132111,5.435944,-22.007376,2.855361
1006,-0.297948,-1.066945,-0.517675,-0.045376,-0.952083,0.168251,0.966936,-22.88863,4.932433
1007,-0.309542,-1.062079,-0.515093,-0.04618,-0.960114,0.180297,1.155883,-20.181984,4.051179
1008,-0.316498,-1.062079,-0.517675,-0.027707,-0.980191,0.171464,-3.439039,-15.33538,3.673583
1009,-0.316498,-1.062079,-0.548658,-0.058226,-0.971358,0.14496,-1.928359,-12.880564,4.869551
1010,-0.304904,-1.066945,-0.525421,-0.025298,-0.964934,0.148173,1.470596,-14.580041,2.792329
1011,-0.304904,-1.066945,-0.525421,-0.053407,-0.970554,0.152991,2.918243,-18.608421,6.128401
1012,-0.318816,-1.069378,-0.504765,-0.053407,-0.95369,0.147369,4.806519,-18.608421,2.666414
1013,-0.314179,-1.057212,-0.530584,-0.028511,-0.962523,0.144158,3.547668,-19.615591,5.435944
1014,-0.309542,-1.066945,-0.502183,-0.071879,-0.960918,0.179495,1.974106,-23.077429,3.547668
1015,-0.307223,-1.059646,-0.504765,-0.010843,-0.950476,0.14978,1.848191,-23.455025,4.114211
1016,-0.309542,-1.064512,-0.507347,-0.03092,-0.964934,0.16022,-1.550764,-28.112829,4.995317
1017,-0.31186,-1.074244,-0.509929,-0.049391,-0.970554,0.144158,0.085831,-28.994085,3.107041
1018,-0.31186,-1.074244,-0.509929,-0.019676,-0.956098,0.147369,0.526309,-24.839788,4.051179
1019,-0.314179,-1.064512,-0.540912,-0.05662,-0.956901,0.140945,2.162904,-17.412455,4.680604
1020,-0.314179,-1.071811,-0.49702,-0.032527,-0.937628,0.18351,4.114211,-13.950616,2.792329
1021,-0.321135,-1.064512,-0.489274,-0.049391,-0.952083,0.141749,1.407564,-16.720146,6.065369
1022,-0.323454,-1.062079,-0.476364,-0.042164,-0.94887,0.138536,1.407564,-15.650093,1.596361
1023,-0.316498,-1.062079,-0.504765,-0.024496,-0.941643,0.177888,1.407564,-16.468317,6.254167
1024,-0.316498,-1.062079,-0.504765,-0.057422,-0.964934,0.148975,-0.103116,-13.573021,3.295839
1025,-0.323454,-1.066945,-0.49702,-0.010039,-0.963327,0.161022,1.344681,-13.573021,3.673583
1026,-0.318816,-1.066945,-0.486692,-0.042967,-0.959312,0.147369,0.274628,-14.139414,4.806519
1027,-0.321135,-1.074244,-0.49702,-0.045376,-0.949674,0.14978,1.722276,-12.251139,3.547668
1028,-0.31186,-1.066945,-0.4712,-0.045376,-0.951281,0.172266,2.288818,-16.090721,3.925264
1029,-0.31186,-1.066945,-0.491856,-0.042967,-0.958507,0.153795,2.792329,-15.398264,4.365891
1030,-0.309542,-1.069378,-0.460873,-0.050195,-0.939234,0.154598,1.407564,-14.265328,3.988296
1031,-0.309542,-1.069378,-0.460873,-0.044573,-0.964934,0.159415,1.218766,-12.062341,4.365891
1032,-0.31186,-1.074244,-0.463455,-0.042967,-0.951281,0.145764,0.652224,-12.81768,4.051179
1033,-0.318816,-1.074244,-0.460873,-0.036542,-0.958507,0.166644,-1.047254,-12.314022,4.177094
1034,-0.316498,-1.071811,-0.466036,-0.046982,-0.957705,0.135323,0.526309,-18.104912,3.107041
1035,-0.33041,-1.066945,-0.453127,-0.035738,-0.942445,0.14496,-0.291914,-18.608421,4.365891
1036,-0.328091,-1.069378,-0.463455,-0.045376,-0.956098,0.151384,0.904053,-21.944492,2.918243
1037,-0.328091,-1.069378,-0.463455,-0.01807,-0.946461,0.136127,1.659393,-20.811409,3.988296
1038,-0.325772,-1.088844,-0.463455,-0.0518,-0.949674,0.159415,2.855361,-16.279518,3.988296
1039,-0.328091,-1.074244,-0.468618,-0.049391,-0.956098,0.169857,1.848191,-18.104912,3.044158
1040,-0.318816,-1.074244,-0.447963,-0.050998,-0.94887,0.152189,1.470596,-19.552559,4.554689
1041,-0.323454,-1.074244,-0.411816,-0.038149,-0.959312,0.156204,0.841171,-20.559729,3.232956
1042,-0.318816,-1.059646,-0.447963,-0.039754,-0.95369,0.161826,0.400543,-20.559729,4.491806
1043,-0.321135,-1.071811,-0.442799,-0.046982,-0.944854,0.139338,1.218766,-18.734337,3.736466
1044,-0.321135,-1.071811,-0.442799,-0.028511,-0.94887,0.180297,-1.424849,-17.664284,3.736466
1045,-0.323454,-1.076678,-0.460873,-0.052604,-0.971358,0.157811,0.589341,-15.209465,3.925264
1046,-0.325772,-1.064512,-0.453127,-0.034132,-0.955296,0.174675,2.036989,-14.83187,3.736466
1047,-0.321135,-1.071811,-0.435053,-0.050998,-0.950476,0.172266,2.414733,-16.279518,5.247146
1048,-0.323454,-1.066945,-0.450545,-0.037345,-0.962523,0.144158,2.225786,-17.286688,3.547668
1049,-0.318816,-1.064512,-0.450545,-0.052604,-0.958507,0.161022,0.337511,-20.559729,5.310029
1050,-0.318816,-1.064512,-0.450545,-0.050195,-0.964129,0.1297,0.211596,-23.014545,4.239976
1051,-0.321135,-1.069378,-0.447963,-0.030116,-0.965736,0.161022,1.407564,-21.881462,3.044158
1052,-0.33041,-1.074244,-0.406652,-0.059029,-0.941643,0.157006,1.911074,-27.105808,4.491806
1053,-0.325772,-1.062079,-0.437636,-0.049391,-0.951281,0.164235,0.652224,-29.812304,3.358871
1054,-0.332728,-1.081544,-0.437636,-0.030116,-0.958507,0.154598,0.085831,-34.596027,3.799498
1055,-0.325772,-1.079111,-0.432471,-0.04618,-0.956098,0.141749,1.722276,-39.568542,3.358871
1056,-0.323454,-1.076678,-0.440217,-0.027707,-0.931201,0.117654,0.463426,-37.869064,4.177094
1057,-0.323454,-1.076678,-0.440217,-0.035738,-0.960114,0.151384,0.904053,-35.162567,4.617721
1058,-0.325772,-1.08641,-0.450545,-0.038149,-0.945659,0.109623,0.652224,-38.75032,2.918243
1059,-0.332728,-1.069378,-0.435053,-0.050195,-0.967342,0.130505,4.869551,-33.400208,5.184263
1060,-0.33041,-1.062079,-0.409234,-0.040558,-0.948067,0.148173,2.729446,-22.88863,3.673583
1061,-0.342003,-1.074244,-0.427308,-0.035738,-0.97216,0.195556,1.722276,-22.448004,4.114211
1062,-0.323454,-1.071811,-0.41698,-0.023692,-0.977782,0.169053,0.904053,-18.104912,4.680604
1063,-0.325772,-1.079111,-0.409234,-0.037345,-0.980995,0.158613,-0.417829,-21.818579,2.981126
1064,-0.325772,-1.079111,-0.409234,-0.022889,-0.967342,0.118458,1.029968,-25.028736,5.310029
1065,-0.335047,-1.074244,-0.414398,-0.032527,-0.959312,0.132914,0.841171,-19.489676,3.925264
1066,-0.335047,-1.069378,-0.404071,-0.035738,-0.960114,0.144158,3.547668,-18.923134,4.995317
1067,-0.332728,-1.066945,-0.414398,-0.036542,-0.958507,0.132914,0.589341,-21.881462,3.925264
1068,-0.323454,-1.076678,-0.393743,-0.052604,-0.964934,0.161826,1.407564,-16.594231,4.932433
1069,-0.321135,-1.074244,-0.385997,-0.049391,-0.966538,0.185115,3.862381,-9.670406,2.477616
1070,-0.321135,-1.074244,-0.385997,-0.034936,-0.968949,0.170659,0.526309,-18.104912,4.932433
1071,-0.314179,-1.079111,-0.409234,-0.063848,-0.956901,0.164235,0.211596,-24.273396,3.673583
1072,-0.316498,-1.071811,-0.401488,-0.014054,-0.958507,0.156204,-0.291914,-27.357637,3.547668
1073,-0.318816,-1.076678,-0.398906,-0.048589,-0.968145,0.163433,-0.291914,-31.952412,3.799498
1074,-0.325772,-1.079111,-0.388579,-0.033329,-0.952885,0.16022,-0.417829,-35.414398,1.092851
1075,-0.328091,-1.081544,-0.375669,-0.040558,-0.954492,0.147369,2.666414,-33.589005,5.373061
1076,-0.328091,-1.079111,-0.365342,-0.0518,-0.95369,0.14978,2.729446,-34.847855,2.855361
1077,-0.328091,-1.079111,-0.365342,-0.010039,-0.924777,0.128898,2.162904,-34.21843,5.058348
1078,-0.325772,-1.083977,-0.396325,-0.072682,-0.966538,0.162628,0.085831,-26.035755,4.114211
1079,-0.323454,-1.074244,-0.36276,-0.019676,-0.951281,0.140945,1.785308,-21.252037,2.540499
1080,-0.321135,-1.079111,-0.388579,-0.050195,-0.955296,0.151384,0.904053,-12.314022,5.876571
1081,-0.316498,-1.079111,-0.375669,-0.028511,-0.964129,0.158613,0.211596,-10.992289,2.288818
1082,-0.314179,-1.076678,-0.34985,-0.036542,-0.951281,0.152189,1.029968,-10.551661,5.624742
1083,-0.314179,-1.076678,-0.34985,-0.05662,-0.971358,0.163433,0.904053,-11.873543,2.792329
1084,-0.31186,-1.071811,-0.347268,-0.027707,-0.956901,0.128898,1.029968,-14.013499,3.925264
1085,-0.325772,-1.069378,-0.347268,-0.04618,-0.964129,0.169053,2.351701,-19.049049,3.988296
1086,-0.321135,-1.074244,-0.36276,-0.033329,-0.941643,0.152189,1.911074,-24.08445,3.736466
1087,-0.314179,-1.079111,-0.352432,-0.032527,-0.963327,0.120065,2.729446,-27.861149,4.114211
1088,-0.316498,-1.076678,-0.352432,-0.029314,-0.940839,0.157811,2.477616,-30.756592,4.365891
1089,-0.31186,-1.079111,-0.331777,-0.044573,-0.960114,0.162628,1.092851,-30.945391,3.170073
1090,-0.31186,-1.079111,-0.331777,-0.059831,-0.960918,0.158613,2.162904,-41.016342,3.484786
1091,-0.325772,-1.083977,-0.324031,-0.027707,-0.959312,0.16022,-0.480711,-52.597969,3.610551
1092,-0.318816,-1.064512,-0.347268,-0.055815,-0.948067,0.108821,3.232956,-56.563316,3.547668
1093,-0.31186,-1.069378,-0.339522,-0.026101,-0.954492,0.126489,1.344681,-58.199913,3.421754
1094,-0.31186,-1.071811,-0.326613,-0.025298,-0.957705,0.103199,3.925264,-54.297447,2.918243
1095,-0.316498,-1.066945,-0.321449,-0.046982,-0.932808,0.16022,3.484786,-51.33897,4.428923
1096,-0.316498,-1.066945,-0.321449,-0.044573,-0.960114,0.157006,5.750656,-54.737926,4.239976
1097,-0.314179,-1.079111,-0.298212,-0.022889,-0.959312,0.112032,3.421754,-47.499538,4.491806
1098,-0.314179,-1.074244,-0.313703,-0.030116,-0.964934,0.148975,0.778139,-37.239639,3.107041
1099,-0.314179,-1.059646,-0.305958,-0.008432,-0.974569,0.140945,-0.858307,-26.413351,2.792329
1100,-0.323454,-1.064512,-0.290466,-0.052604,-0.96172,0.173068,-1.298934,-18.734337,4.365891
1101,-0.33041,-1.054779,-0.293048,-0.030116,-0.960114,0.14978,-0.543594,-16.027689,3.232956
1102,-0.325772,-1.069378,-0.318867,-0.048589,-0.970554,0.192343,-0.291914,-16.405434,4.806519
1103,-0.325772,-1.069378,-0.318867,-0.042164,-0.969751,0.157811,0.904053,-20.181984,3.862381
1104,-0.318816,-1.074244,-0.285302,-0.032527,-0.952083,0.136929,2.666414,-18.104912,4.491806
1105,-0.321135,-1.069378,-0.262065,-0.044573,-0.955296,0.120867,3.358871,-16.846062,4.428923
1106,-0.318816,-1.076678,-0.285302,-0.031723,-0.940037,0.136929,2.981126,-15.964806,3.547668
1107,-0.316498,-1.071811,-0.300793,-0.035738,-0.977782,0.13452,1.281649,-15.146584,4.806519
1108,-0.314179,-1.071811,-0.272393,-0.034936,-0.959312,0.136929,1.722276,-19.237846,3.610551
1109,-0.309542,-1.076678,-0.285302,-0.033329,-0.946461,0.165037,-0.103116,-22.448004,5.058348
1110,-0.309542,-1.076678,-0.285302,-0.048589,-0.967342,0.153795,0.274628,-22.510887,2.603531
1111,-0.31186,-1.069378,-0.256901,-0.035738,-0.980995,0.185115,0.778139,-18.356592,4.114211
1112,-0.304904,-1.079111,-0.251737,-0.05662,-0.980191,0.200374,-0.354797,-22.88863,4.303008
1113,-0.321135,-1.059646,-0.272393,-0.033329,-0.980191,0.157006,0.085831,-24.713875,2.729446
1114,-0.302586,-1.076678,-0.272393,-0.053407,-0.931201,0.152189,1.407564,-32.141209,4.617721
1115,-0.309542,-1.079111,-0.280138,-0.043769,-0.939234,0.147369,1.848191,-33.777802,2.792329
1116,-0.309542,-1.079111,-0.280138,-0.029314,-0.945659,0.173068,0.904053,-33.400208,5.498976
1117,-0.309542,-1.064512,-0.280138,-0.050998,-0.954492,0.128898,2.162904,-36.862045,2.918243
1118,-0.300267,-1.081544,-0.274974,-0.017267,-0.928792,0.16022,1.659393,-38.939117,2.540499
1119,-0.31186,-1.071811,-0.249155,-0.050998,-0.94887,0.150582,0.337511,-43.282211,5.435944
1120,-0.300267,-1.066945,-0.243991,-0.024496,-0.960114,0.135323,0.526309,-44.163467,1.848191
1121,-0.307223,-1.071811,-0.254319,-0.035738,-0.952885,0.1297,2.036989,-38.624405,4.743636
1122,-0.304904,-1.069378,-0.254319,-0.034936,-0.941643,0.120065,2.477616,-26.350468,2.414733
1123,-0.304904,-1.069378,-0.254319,-0.02048,-0.945659,0.169053,2.351701,-21.755547,3.925264
1124,-0.307223,-1.064512,-0.241409,-0.063848,-0.969751,0.156204,2.288818,-19.867271,4.743636
1125,-0.302586,-1.066945,-0.218172,-0.03092,-0.975373,0.138536,1.155883,-18.734337,2.540499
1126,-0.297948,-1.076678,-0.233664,-0.040558,-0.973767,0.162628,-0.921339,-14.265328,5.121231
1127,-0.297948,-1.079111,-0.225918,-0.037345,-0.952083,0.14978,0.400543,-18.230825,2.100021
1128,-0.307223,-1.071811,-0.233664,-0.042967,-0.93843,0.180297,0.337511,-22.322088,5.247146
1129,-0.307223,-1.071811,-0.233664,-0.044573,-0.973767,0.139338,0.463426,-25.532246,4.177094
1130,-0.297948,-1.071811,-0.202681,-0.031723,-0.968949,0.138536,1.281649,-21.755547,3.421754
1131,-0.29563,-1.059646,-0.223336,-0.042164,-0.969751,0.123276,2.351701,-21.755547,4.806519
1132,-0.293311,-1.074244,-0.21559,-0.023692,-0.955296,0.146567,1.533478,-17.727167,3.295839
1133,-0.29563,-1.08641,-0.218172,-0.050998,-0.928792,0.169857,0.589341,-15.901924,4.617721
1134,-0.29563,-1.079111,-0.225918,-0.045376,-0.949674,0.132111,0.211596,-17.349571,4.114211
1135,-0.288674,-1.081544,-0.205263,-0.038149,-0.934415,0.140142,-0.165999,-15.712976,3.610551
1136,-0.288674,-1.081544,-0.205263,-0.032527,-0.939234,0.14496,1.911074,-23.266226,4.114211
1137,-0.302586,-1.071811,-0.184607,-0.029314,-0.989026,0.18351,1.218766,-30.001255,4.365891
1138,-0.293311,-1.066945,-0.194935,-0.038149,-0.985011,0.181099,-1.110137,-30.567644,4.617721
1139,-0.290992,-1.083977,-0.192353,-0.040558,-0.965736,0.144158,0.526309,-24.713875,3.484786
1140,-0.288674,-1.079111,-0.202681,-0.043769,-0.99786,0.154598,5.561858,-24.399162,4.743636
1141,-0.304904,-1.079111,-0.184607,-0.062242,-0.944854,0.161022,0.022799,-36.043823,3.799498
1142,-0.304904,-1.079111,-0.184607,-0.026905,-0.968949,0.164235,0.085831,-49.639492,3.421754
1143,-0.288674,-1.081544,-0.200099,-0.04136,-0.932808,0.040556,0.148714,-59.395729,3.547668
1144,-0.300267,-1.088844,-0.194935,-0.019676,-0.890244,0.074286,4.303008,-45.548229,0.085831
1145,-0.29563,-1.076678,-0.182025,-0.017267,-0.949674,0.144158,1.092851,-47.56242,6.128401
1146,-0.27708,-1.076678,-0.179443,-0.071879,-0.948067,0.148173,3.358871,-52.849651,2.288818
1147,-0.297948,-1.076678,-0.140715,-0.035738,-0.944052,0.1297,2.729446,-45.80006,3.421754
1148,-0.286355,-1.066945,-0.138133,-0.043769,-0.954492,0.133716,-3.753752,-40.638596,3.610551
1149,-0.286355,-1.066945,-0.138133,0.013252,-0.933612,0.082317,5.813688,-26.098639,3.044158
1150,-0.27708,-1.069378,-0.143296,-0.045376,-0.947265,0.104805,2.540499,-29.182882,5.373061
1151,-0.279399,-1.066945,-0.112313,-0.023692,-0.88944,0.115245,-0.795424,-31.952412,0.715256
1152,-0.281718,-1.062079,-0.130387,-0.039754,-0.909517,0.132914,1.911074,-30.127018,5.750656
1153,-0.272443,-1.074244,-0.151042,-0.05662,-0.94325,0.152189,1.281649,-30.315966,2.603531
1154,-0.272443,-1.069378,-0.17428,-0.008432,-0.947265,0.139338,1.659393,-31.008274,3.547668
1155,-0.270124,-1.062079,-0.16137,-0.067864,-0.96172,0.171464,1.722276,-32.896549,4.365891
1156,-0.270124,-1.062079,-0.16137,-0.014054,-0.94887,0.145764,0.085831,-33.274292,3.295839
1157,-0.267806,-1.076678,-0.109731,-0.065453,-0.967342,0.147369,1.029968,-33.085495,5.310029
1158,-0.263168,-1.062079,-0.145878,-0.038951,-0.944052,0.152991,-0.103116,-34.470112,2.100021
1159,-0.272443,-1.074244,-0.140715,-0.049391,-0.957705,0.163433,2.540499,-33.463089,4.428923
1160,-0.263168,-1.074244,-0.10715,-0.04136,-0.969751,0.141749,3.107041,-27.042925,3.547668
1161,-0.265487,-1.064512,-0.112313,-0.04136,-0.963327,0.153795,0.463426,-24.08445,4.428923
1162,-0.265487,-1.064512,-0.112313,-0.049391,-0.952885,0.184312,-0.165999,-26.350468,3.295839
1163,-0.267806,-1.062079,-0.127805,-0.030116,-0.980191,0.168251,-0.921339,-34.97377,4.491806
1164,-0.256212,-1.069378,-0.153624,-0.069468,-0.957705,0.119261,2.225786,-38.498642,2.414733
1165,-0.258531,-1.069378,-0.135551,-0.024496,-0.956098,0.104805,0.778139,-44.981689,2.666414
1166,-0.256212,-1.08641,-0.117477,-0.046982,-0.986618,0.14496,-2.243072,-46.492367,4.114211
1167,-0.246938,-1.066945,-0.117477,-0.005221,-0.957705,0.156204,4.365891,-42.401104,2.100021
1168,-0.249256,-1.069378,-0.122641,-0.047784,-0.954492,0.163433,2.100021,-43.659954,5.310029
1169,-0.249256,-1.069378,-0.122641,-0.030116,-0.985011,0.152189,2.666414,-41.771679,1.848191
1170,-0.249256,-1.074244,-0.104568,-0.023692,-0.980995,0.176281,0.841171,-42.463989,5.687773
1171,-0.256212,-1.059646,-0.09424,-0.022085,-0.960918,0.166644,1.218766,-36.987961,1.911074
1172,-0.244619,-1.066945,-0.089076,-0.038951,-0.952885,0.138536,-1.298934,-29.497593,5.750656
1173,-0.2423,-1.066945,-0.109731,-0.03092,-0.942445,0.088743,0.400543,-27.483404,2.351701
1174,-0.239982,-1.066945,-0.114895,-0.026905,-0.914337,0.112836,2.540499,-20.937325,3.925264
1175,-0.239982,-1.066945,-0.114895,-0.058226,-0.950476,0.11123,3.547668,-11.684597,4.617721
1176,-0.2423,-1.064512,-0.112313,-0.022889,-0.96172,0.124883,2.288818,-9.985119,3.421754
1177,-0.239982,-1.054779,-0.117477,-0.038149,-0.95369,0.139338,1.596361,-9.796322,4.680604
1178,-0.246938,-1.079111,-0.091658,-0.039754,-0.964129,0.136929,-0.417829,-1.298934,3.610551
1179,-0.239982,-1.074244,-0.086494,-0.029314,-0.958507,0.141749,1.407564,-3.564954,5.373061
1180,-0.233026,-1.069378,-0.076166,-0.053407,-0.960114,0.161826,2.036989,-6.523281,3.862381
1181,-0.235344,-1.081544,-0.089076,-0.03092,-0.956901,0.133716,2.162904,-9.985119,3.988296
1182,-0.235344,-1.081544,-0.089076,-0.059029,-0.952885,0.152991,-0.921339,-16.971975,3.988296
1183,-0.235344,-1.064512,-0.09424,-0.016465,-0.930399,0.146567,3.232956,-21.818579,2.162904
1184,-0.230707,-1.069378,-0.083912,-0.060635,-0.954492,0.142551,1.722276,-23.706854,6.380081
1185,-0.219114,-1.064512,-0.096822,-0.042967,-0.956901,0.140142,-0.921339,-31.008274,1.344681
1186,-0.223751,-1.057212,-0.08133,-0.026905,-0.959312,0.145764,2.225786,-31.700729,5.121231
1187,-0.221432,-1.071811,-0.065839,-0.050195,-0.967342,0.11123,0.400543,-18.545538,3.107041
1188,-0.221432,-1.071811,-0.065839,-0.023692,-0.94325,0.150582,1.659393,-16.720146,3.799498
1189,-0.223751,-1.057212,-0.076166,-0.061437,-0.956098,0.154598,2.288818,-18.230825,4.617721
1190,-0.228388,-1.066945,-0.08133,-0.027707,-0.948067,0.159415,1.092851,-18.608421,2.918243
1191,-0.223751,-1.062079,-0.08133,-0.043769,-0.964129,0.128898,1.218766,-21.252037,4.995317
1192,-0.221432,-1.064512,-0.055511,-0.037345,-0.951281,0.140142,1.344681,-27.231724,2.225786
1193,-0.214476,-1.071811,-0.052929,-0.032527,-0.956098,0.136929,1.281649,-33.463089,4.365891
1194,-0.205202,-1.074244,-0.063257,-0.043769,-0.9826,0.157006,0.526309,-19.489676,3.988296
1195,-0.205202,-1.074244,-0.063257,-0.023692,-0.980191,0.128898,-0.543594,-16.657114,4.114211
1196,-0.219114,-1.069378,-0.037438,-0.038149,-0.991435,0.137733,3.232956,-17.6014,3.736466
1197,-0.209839,-1.066945,-0.063257,-0.04136,-0.97216,0.150582,-0.417829,-20.559729,4.051179
1198,-0.205202,-1.062079,-0.058093,-0.021283,-0.966538,0.127292,1.911074,-21.440834,3.610551
1199,-0.209839,-1.074244,-0.058093,-0.042164,-0.955296,0.135323,-0.103116,-18.04188,5.121231
1200,-0.200564,-1.059646,-0.055511,-0.032527,-0.937628,0.13452,0.526309,-13.509989,4.051179
1201,-0.200564,-1.059646,-0.055511,-0.032527,-0.922368,0.138536,0.904053,-14.391243,4.743636
1202,-0.214476,-1.071811,-0.032274,-0.025298,-0.948067,0.140142,1.722276,-15.524179,3.799498
1203,-0.205202,-1.059646,-0.055511,-0.034132,-0.949674,0.156204,1.911074,-12.502968,4.554689
1204,-0.20752,-1.066945,-0.024528,-0.038951,-0.973767,0.161826,1.344681,-13.509989,3.547668
1205,-0.198246,-1.057212,-0.021946,-0.042967,-0.957705,0.173873,1.155883,-17.790199,4.303008
1206,-0.20752,-1.062079,-0.032274,-0.04618,-0.981798,0.12167,1.029968,-24.776905,4.617721
1207,-0.20752,-1.054779,-0.047765,-0.032527,-0.952083,0.128898,1.092851,-26.224554,3.484786
1208,-0.20752,-1.054779,-0.047765,-0.045376,-0.950476,0.16022,1.281649,-22.259205,4.239976
1209,-0.20752,-1.064512,-0.04002,-0.023692,-0.958507,0.112032,2.477616,-23.329258,2.792329
1210,-0.195927,-1.064512,-0.037438,-0.044573,-0.96172,0.150582,2.288818,-18.356592,4.743636
1211,-0.202883,-1.062079,-0.034856,-0.026905,-0.990633,0.169857,1.029968,-18.671305,2.855361
1212,-0.198246,-1.066945,-0.021946,-0.03092,-0.949674,0.169053,-0.040084,-22.384972,4.869551
1213,-0.209839,-1.071811,-0.02711,-0.027707,-0.968949,0.152189,1.281649,-22.573917,3.736466
1214,-0.193609,-1.064512,-0.02711,-0.048589,-0.959312,0.165842,1.344681,-25.343449,3.610551
1215,-0.193609,-1.064512,-0.02711,-0.040558,-0.94887,0.130505,0.966936,-29.308796,3.358871
1216,-0.193609,-1.066945,-0.029692,-0.049391,-0.930399,0.1297,1.848191,-26.413351,3.988296
1217,-0.19129,-1.071811,-0.011618,-0.046982,-0.94325,0.18351,2.036989,-32.644867,3.421754
1218,-0.188971,-1.062079,0.009037,-0.028511,-0.973767,0.150582,0.841171,-32.959579,5.058348
1219,-0.193609,-1.064512,-0.006455,-0.026905,-0.960918,0.135323,1.533478,-33.022465,2.414733
1220,-0.182015,-1.074244,0.006455,-0.026905,-0.969751,0.140142,2.100021,-28.427542,5.247146
1221,-0.182015,-1.074244,0.006455,-0.044573,-0.97216,0.132914,1.029968,-37.554352,3.358871
1222,-0.184334,-1.074244,0.019365,-0.037345,-0.932006,0.141749,0.526309,-47.688335,4.051179
1223,-0.188971,-1.064512,-0.009037,-0.07509,-0.931201,0.145764,0.778139,-60.969437,3.484786
1224,-0.184334,-1.074244,0.011619,-0.014858,-0.9826,0.140142,-0.040084,-64.745995,2.918243
1225,-0.168103,-1.064512,-0.001291,-0.038149,-0.983404,0.140142,1.722276,-66.382584,5.310029
1226,-0.154191,-1.069378,0.009037,-0.057422,-0.998664,0.18351,2.225786,-68.396774,2.162904
1227,-0.154191,-1.064512,0.029692,-0.038951,-0.970554,0.13452,4.177094,-67.767204,3.484786
1228,-0.154191,-1.064512,0.029692,-0.042164,-0.993042,0.150582,0.778139,-62.605892,3.925264
1229,-0.158828,-1.066945,0.014201,-0.002812,-0.949674,0.144158,-1.487881,-62.857712,3.736466
1230,-0.142598,-1.071811,0.042602,-0.038149,-0.915944,0.095168,0.652224,-61.598869,3.736466
1231,-0.13796,-1.059646,0.04002,-0.033329,-0.929597,0.13452,0.148714,-56.941063,2.855361
1232,-0.142598,-1.062079,0.05293,-0.04136,-0.94887,0.148173,0.589341,-58.136875,3.170073
1233,-0.128686,-1.059646,0.032274,-0.047784,-0.940037,0.152189,1.281649,-55.052639,2.225786
1234,-0.128686,-1.059646,0.032274,-0.050998,-0.941643,0.165037,2.225786,-51.527916,4.177094
1235,-0.12173,-1.059646,0.042602,-0.038951,-0.958507,0.169053,2.351701,-51.590801,2.918243
1236,-0.114774,-1.064512,0.068421,-0.059831,-0.937628,0.117654,2.162904,-55.87101,1.911074
1237,-0.117092,-1.054779,0.060675,-0.032527,-0.948067,0.136127,-0.606626,-59.458763,4.617721
1238,-0.107818,-1.057212,0.104568,-0.008432,-0.958507,0.158613,-0.732541,-60.025303,2.918243
1239,-0.110137,-1.064512,0.065839,-0.05662,-0.937628,0.133716,0.022799,-61.913574,4.428923
1240,-0.098543,-1.052346,0.050347,-0.046982,-0.96172,0.157006,0.715256,-65.501335,2.036989
1241,-0.098543,-1.052346,0.050347,0.00281,-0.96172,0.10079,2.288818,-66.193642,3.421754
1242,-0.091587,-1.04748,0.081331,-0.065453,-0.949674,0.110427,2.729446,-51.653683,4.239976
1243,-0.091587,-1.04018,0.065839,-0.01807,-0.946461,0.153795,0.904053,-48.128963,3.358871
1244,-0.073038,-1.052346,0.076167,-0.063848,-0.946461,0.166644,1.848191,-41.96048,5.184263
1245,-0.068401,-1.052346,0.089077,-0.029314,-0.972965,0.175479,0.778139,-43.408127,2.100021
1246,-0.079994,-1.057212,0.104568,-0.073484,-0.96172,0.138536,-0.354797,-48.632473,4.428923
1247,-0.079994,-1.057212,0.104568,-0.017267,-1.005088,0.132111,0.589341,-49.135983,3.799498
1248,-0.061445,-1.057212,0.104568,-0.026905,-0.966538,0.165037,1.407564,-49.32478,2.414733
1249,-0.059126,-1.049913,0.096822,-0.05662,-0.97698,0.163433,2.855361,-47.688335,3.170073
1250,-0.05217,-1.049913,0.086495,-0.03092,-0.932006,0.153795,1.281649,-46.366455,2.288818
1251,-0.054489,-1.059646,0.127805,-0.042164,-0.922368,0.128096,0.966936,-45.862942,4.365891
1252,-0.033621,-1.066945,0.101986,-0.038951,-0.972965,0.177888,1.344681,-50.143154,3.358871
1253,-0.026665,-1.066945,0.148461,-0.040558,-0.980191,0.125685,1.092851,-50.331951,3.736466
1254,-0.026665,-1.066945,0.148461,-0.04618,-0.97698,0.157006,0.274628,-50.269066,3.862381
1255,-0.028983,-1.062079,0.132969,-0.049391,-0.966538,0.131307,0.652224,-41.834564,3.799498
1256,-0.01739,-1.059646,0.122641,-0.032527,-0.97216,0.168251,1.155883,-41.708649,3.925264
1257,-0.019709,-1.04748,0.127805,-0.032527,-0.984207,0.116852,1.407564,-35.603195,3.295839
1258,-0.012753,-1.054779,0.122641,-0.042164,-0.950476,0.14496,2.036989,-30.378847,3.925264
1259,0.00116,-1.062079,0.104568,-0.059831,-0.960114,0.124883,1.911074,-30.001255,3.673583
1260,0.00116,-1.062079,0.104568,-0.042967,-0.96172,0.161022,0.526309,-35.540165,3.799498
1261,0.00116,-1.064512,0.145879,-0.059029,-0.944854,0.124883,0.400543,-43.534042,3.799498
1262,0.010434,-1.052346,0.156206,-0.043769,-0.976176,0.116049,0.589341,-49.828442,1.848191
1263,0.010434,-1.04748,0.140715,-0.061437,-0.98742,0.144158,1.596361,-60.151073,3.736466
1264,0.012753,-1.057212,0.143297,-0.042967,-0.976176,0.173068,2.225786,-68.270859,2.351701
1265,0.024346,-1.04748,0.143297,-0.042164,-0.942445,0.117654,2.792329,-75.635162,3.673583
1266,0.031302,-1.052346,0.148461,-0.042967,-0.94325,0.133716,1.344681,-67.704323,2.288818
1267,0.031302,-1.052346,0.148461,-0.030116,-0.91755,0.147369,0.904053,-61.850548,3.044158
1268,0.045214,-1.049913,0.140715,-0.063044,-0.944052,0.102396,1.470596,-55.80798,4.239976
1269,0.042896,-1.054779,0.151042,-0.035738,-0.944052,0.12167,0.966936,-46.492367,2.855361
1270,0.054489,-1.04748,0.16137,-0.046982,-0.94887,0.140945,-0.040084,-38.939117,4.617721
1271,0.061445,-1.042614,0.12006,-0.038951,-0.997057,0.103199,1.848191,-32.39304,3.295839
1272,0.056807,-1.049913,0.140715,-0.036542,-0.985011,0.177084,1.848191,-31.763615,4.177094
1273,0.068401,-1.04748,0.17428,-0.050195,-0.973767,0.125685,1.533478,-38.435608,2.918243
1274,0.068401,-1.04748,0.17428,-0.034936,-0.957705,0.156204,1.470596,-44.918804,3.799498
1275,0.068401,-1.042614,0.158788,-0.052604,-0.964129,0.150582,-0.040084,-58.829334,3.170073
1276,0.077675,-1.054779,0.151042,-0.027707,-0.956098,0.104001,1.407564,-59.395729,2.477616
1277,0.082313,-1.045047,0.192353,-0.070273,-0.945659,0.145764,1.407564,-61.598869,2.540499
1278,0.093906,-1.045047,0.176862,-0.017267,-0.97698,0.132111,2.981126,-61.850548,2.351701
1279,0.105499,-1.045047,0.182025,-0.061437,-0.967342,0.140945,2.414733,-60.025303,3.988296
1280,0.105499,-1.045047,0.182025,-0.044573,-0.964129,0.156204,1.911074,-56.500435,0.715256
1281,0.112455,-1.042614,0.143297,-0.031723,-0.956098,0.130505,0.652224,-46.681168,4.806519
1282,0.119411,-1.045047,0.182025,-0.061437,-0.956098,0.089546,1.722276,-34.97377,3.358871
1283,0.12173,-1.037747,0.18719,-0.039754,-0.96172,0.13452,0.589341,-30.127018,4.303008
1284,0.13796,-1.037747,0.205263,-0.047784,-0.969751,0.169857,-0.795424,-31.511786,4.177094
1285,0.135642,-1.049913,0.189771,-0.042967,-0.93843,0.137733,2.603531,-28.616488,3.358871
1286,0.135642,-1.042614,0.18719,-0.044573,-0.960918,0.146567,1.974106,-35.917908,3.925264
1287,0.135642,-1.042614,0.18719,-0.033329,-0.960114,0.140945,2.540499,-38.498642,3.925264
1288,0.135642,-1.04018,0.158788,-0.050195,-0.980191,0.190737,1.911074,-37.365555,4.743636
1289,0.142598,-1.035314,0.194935,-0.049391,-0.944854,0.120065,0.526309,-41.393936,2.729446
1290,0.149554,-1.052346,0.194935,-0.042967,-0.954492,0.148173,-1.550764,-49.576611,4.617721
1291,0.158829,-1.04748,0.205263,-0.038149,-0.948067,0.099986,2.036989,-49.261898,1.848191
1292,0.179696,-1.045047,0.2285,-0.042967,-0.948067,0.158613,2.162904,-48.82127,4.491806
1293,0.179696,-1.045047,0.2285,-0.033329,-0.968145,0.147369,2.792329,-48.569592,2.918243
1294,0.184334,-1.045047,0.202681,0.012448,-0.969751,0.139338,1.218766,-46.681168,4.491806
1295,0.170422,-1.04018,0.182025,-0.073484,-0.960918,0.135323,0.966936,-45.170635,4.869551
1296,0.184334,-1.042614,0.205263,-0.023692,-0.944854,0.131307,-0.228882,-45.73703,1.659393
1297,0.193609,-1.035314,0.202681,-0.067864,-0.931201,0.119261,-0.228882,-44.855923,5.561858
1298,0.212158,-1.037747,0.184607,-0.035738,-0.945659,0.127292,2.225786,-43.030529,1.281649
1299,0.209839,-1.049913,0.192353,-0.050998,-0.936021,0.10079,3.421754,-37.617386,6.317198
1300,0.209839,-1.049913,0.192353,-0.071075,-0.94325,0.136127,3.044158,-40.197968,1.218766
1301,0.214477,-1.045047,0.17428,-0.031723,-0.967342,0.150582,1.659393,-43.030529,5.247146
1302,0.219114,-1.035314,0.194935,-0.042164,-0.980995,0.198768,-1.613647,-47.121792,2.918243
1303,0.221432,-1.028014,0.210427,0.00281,-0.96172,0.157006,-0.040084,-49.513729,2.288818
1304,0.228388,-1.042614,0.163952,-0.063044,-0.980191,0.119261,0.148714,-47.940018,5.310029
1305,0.237663,-1.042614,0.176862,-0.035738,-0.968145,0.153795,2.729446,-38.183777,1.281649
1306,0.237663,-1.042614,0.176862,-0.031723,-0.973767,0.10079,2.792329,-36.16959,6.254167
1307,0.246938,-1.037747,0.200099,-0.057422,-0.968145,0.157811,0.966936,-30.630676,1.281649
1308,0.251575,-1.04018,0.202681,-0.029314,-0.940037,0.131307,1.218766,-27.987062,5.561858
1309,0.249257,-1.04018,0.202681,-0.03092,-0.97698,0.120065,-0.040084,-27.357637,2.666414
1310,0.265487,-1.028014,0.200099,-0.022889,-0.94325,0.108017,1.029968,-22.762716,4.177094
1311,0.258531,-1.032881,0.21559,-0.067864,-0.964129,0.107214,1.155883,-20.874441,4.365891
1312,0.26085,-1.045047,0.21559,-0.026905,-0.931201,0.11123,2.414733,-15.964806,2.792329
1313,0.26085,-1.045047,0.21559,-0.070273,-0.968145,0.158613,2.414733,-14.265328,5.750656
1314,0.263168,-1.032881,0.205263,-0.025298,-0.951281,0.128898,1.722276,-14.328212,2.351701
1315,0.274762,-1.035314,0.171698,-0.0518,-0.955296,0.145764,0.400543,-14.894754,5.750656
1316,0.270124,-1.042614,0.194935,-0.048589,-0.964129,0.144158,-0.480711,-21.315067,1.155883
1317,0.270124,-1.045047,0.220755,-0.045376,-0.960918,0.148173,0.904053,-23.958683,5.310029
1318,0.281718,-1.04018,0.202681,-0.04136,-0.970554,0.108821,2.729446,-25.532246,3.044158
1319,0.281718,-1.04018,0.202681,-0.033329,-0.944854,0.109623,2.225786,-25.40633,4.051179
1320,0.286355,-1.04018,0.2285,-0.048589,-0.951281,0.153795,1.659393,-22.196175,3.421754
