Sequence,Geo-X,Geo-Y,Geo-Z,Acc-X,Acc-Y,Acc-Z,Gyro-X,Gyro-Y,Gyro-z
2,1.791168,0.037714,-1.230285,-0.0518,0.03654,-0.803509,1.344681,3.610551,4.428923
3,1.779575,0.037714,-1.225121,-0.0518,0.04136,-0.80672,1.722276,3.421754,4.743636
4,1.781894,0.035281,-1.225121,-0.046982,0.046178,-0.836437,1.470596,3.295839,4.680604
5,1.779575,0.042581,-1.243195,-0.047784,0.035738,-0.828404,1.659393,3.421754,4.177094
6,1.786531,0.045014,-1.232867,-0.050195,0.035738,-0.800295,1.029968,3.610551,4.428923
7,1.774938,0.057179,-1.230285,-0.054211,0.035738,-0.80672,1.470596,3.421754,4.932433
8,1.779575,0.042581,-1.232867,-0.069468,0.030116,-0.792265,1.533478,3.925264,4.869551
9,1.779575,0.042581,-1.232867,-0.047784,0.035738,-0.833224,1.155883,3.610551,4.114211
10,1.781894,0.047447,-1.227703,-0.058226,0.049391,-0.832419,1.470596,3.484786,4.428923
11,1.777257,0.04988,-1.25094,-0.065453,0.053407,-0.809933,1.344681,3.421754,4.428923
12,1.793487,0.037714,-1.217375,-0.0518,0.03654,-0.831617,1.596361,3.358871,4.743636
13,1.784212,0.040147,-1.222539,-0.059029,0.046178,-0.821979,1.533478,3.547668,4.743636
14,1.774938,0.047447,-1.240613,-0.055013,0.043769,-0.837239,1.344681,3.484786,4.554689
15,1.777257,0.04988,-1.204466,-0.055013,0.042967,-0.83483,1.155883,3.610551,4.114211
16,1.777257,0.04988,-1.204466,-0.0518,0.034934,-0.823586,1.533478,3.484786,4.365891
17,1.774938,0.042581,-1.230285,-0.068666,0.046982,-0.827601,1.407564,3.295839,4.806519
18,1.781894,0.045014,-1.243195,-0.061437,0.040556,-0.822784,1.848191,3.295839,4.177094
19,1.777257,0.037714,-1.227703,-0.054211,0.04136,-0.805918,1.407564,3.295839,4.491806
20,1.78885,0.042581,-1.235449,-0.055815,0.034934,-0.834026,1.281649,3.862381,3.925264
21,1.78885,0.047447,-1.225121,-0.065453,0.056618,-0.838846,1.281649,3.736466,4.365891
22,1.78885,0.047447,-1.225121,-0.058226,0.043769,-0.821177,1.407564,3.925264,3.862381
23,1.781894,0.04988,-1.222539,-0.0518,0.042162,-0.819571,1.659393,3.988296,4.303008
24,1.784212,0.045014,-1.20963,-0.050195,0.044571,-0.835632,1.092851,3.862381,4.491806
25,1.786531,0.040147,-1.238031,-0.063848,0.042162,-0.829208,1.596361,3.547668,4.743636
26,1.781894,0.045014,-1.243195,-0.055815,0.028509,-0.812342,1.596361,3.295839,4.491806
27,1.774938,0.040147,-1.256104,-0.069468,0.042967,-0.828404,1.596361,3.547668,4.743636
28,1.772619,0.035281,-1.253522,-0.062242,0.030116,-0.798689,1.596361,3.736466,4.114211
29,1.772619,0.035281,-1.253522,-0.049391,0.034132,-0.810735,1.344681,3.736466,4.428923
30,1.786531,0.04988,-1.271596,-0.066257,0.038147,-0.841254,1.533478,3.484786,4.617721
31,1.786531,0.052313,-1.240613,-0.067864,0.045376,-0.828404,1.533478,3.925264,4.177094
32,1.793487,0.032848,-1.238031,-0.059029,0.042162,-0.808326,1.596361,3.484786,4.365891
33,1.781894,0.035281,-1.238031,-0.0518,0.030116,-0.813948,1.470596,3.232956,4.114211
34,1.78885,0.037714,-1.232867,-0.044573,0.039754,-0.817162,1.407564,3.358871,4.303008
35,1.78885,0.037714,-1.232867,-0.059029,0.040556,-0.824388,1.407564,3.673583,4.177094
36,1.784212,0.042581,-1.20963,-0.045376,0.034132,-0.799493,1.533478,3.547668,4.051179
37,1.781894,0.052313,-1.212212,-0.054211,0.037345,-0.857316,1.407564,3.484786,4.428923
38,1.781894,0.032848,-1.214794,-0.046982,0.037345,-0.834026,1.407564,3.421754,4.680604
39,1.784212,0.037714,-1.219957,-0.059831,0.042967,-0.815555,1.155883,3.610551,4.177094
40,1.781894,0.032848,-1.253522,-0.062242,0.046178,-0.83001,1.281649,3.610551,4.114211
41,1.767982,0.037714,-1.235449,-0.048589,0.038147,-0.825995,1.596361,3.547668,4.428923
42,1.767982,0.037714,-1.235449,-0.0518,0.044571,-0.816357,1.596361,3.547668,4.743636
43,1.78885,0.037714,-1.253522,-0.054211,0.037345,-0.817162,1.218766,3.547668,4.554689
44,1.779575,0.037714,-1.243195,-0.052604,0.045376,-0.814753,1.407564,3.358871,4.932433
45,1.777257,0.040147,-1.219957,-0.0518,0.034934,-0.83483,1.596361,3.421754,4.491806
46,1.786531,0.035281,-1.207048,-0.049391,0.042162,-0.813146,1.155883,3.925264,4.617721
47,1.779575,0.040147,-1.240613,-0.058226,0.038951,-0.827601,1.470596,3.421754,4.114211
48,1.779575,0.040147,-1.240613,-0.062242,0.040556,-0.819571,1.344681,3.358871,4.239976
49,1.78885,0.040147,-1.243195,-0.059029,0.039754,-0.838846,1.281649,3.170073,4.428923
50,1.779575,0.04988,-1.230285,-0.055815,0.045376,-0.805918,1.596361,3.799498,4.365891
51,1.777257,0.04988,-1.258686,-0.063044,0.045376,-0.830815,1.281649,3.421754,4.303008
52,1.786531,0.052313,-1.230285,-0.048589,0.030918,-0.817162,1.029968,3.295839,4.491806
53,1.784212,0.059613,-1.25094,-0.060635,0.039754,-0.842057,1.155883,3.610551,4.680604
54,1.774938,0.047447,-1.232867,-0.063848,0.045376,-0.828404,1.407564,3.736466,4.303008
55,1.774938,0.047447,-1.232867,-0.050195,0.04136,-0.809933,1.344681,3.610551,4.743636
56,1.786531,0.047447,-1.235449,-0.055013,0.038147,-0.828404,1.344681,3.610551,4.491806
57,1.781894,0.037714,-1.227703,-0.058226,0.029314,-0.829208,1.407564,3.295839,4.177094
58,1.779575,0.054746,-1.217375,-0.057422,0.039754,-0.820373,1.344681,3.170073,4.491806
59,1.784212,0.047447,-1.230285,-0.055013,0.050193,-0.813146,1.848191,3.358871,4.428923
60,1.784212,0.052313,-1.230285,-0.048589,0.030116,-0.821979,1.470596,3.295839,4.177094
61,1.78885,0.040147,-1.230285,-0.053407,0.030116,-0.817162,1.596361,3.547668,4.177094
62,1.78885,0.040147,-1.230285,-0.0518,0.039754,-0.8011,1.407564,3.295839,4.617721
63,1.772619,0.042581,-1.227703,-0.042967,0.039754,-0.821979,1.281649,3.358871,4.743636
64,1.774938,0.042581,-1.238031,-0.063848,0.029314,-0.809933,1.407564,3.421754,4.617721
65,1.779575,0.032848,-1.20963,-0.053407,0.030918,-0.817162,1.659393,3.799498,4.869551
66,1.772619,0.035281,-1.204466,-0.052604,0.038951,-0.83483,1.281649,3.547668,4.177094
67,1.774938,0.040147,-1.227703,-0.055013,0.042162,-0.81154,1.533478,3.358871,4.365891
68,1.774938,0.040147,-1.227703,-0.069468,0.04136,-0.825995,1.596361,3.862381,4.365891
69,1.781894,0.04988,-1.207048,-0.052604,0.042967,-0.838041,1.659393,3.925264,4.554689
70,1.774938,0.04988,-1.240613,-0.063044,0.03654,-0.829208,1.911074,3.484786,4.680604
71,1.777257,0.045014,-1.230285,-0.064651,0.047784,-0.813146,1.281649,3.547668,4.680604
72,1.784212,0.04988,-1.214794,-0.062242,0.046178,-0.813948,1.281649,3.547668,4.365891
73,1.777257,0.04988,-1.230285,-0.060635,0.04136,-0.823586,1.533478,3.547668,4.365891
74,1.779575,0.042581,-1.240613,-0.059029,0.048587,-0.817964,1.407564,3.610551,4.491806
75,1.779575,0.042581,-1.240613,-0.055815,0.038147,-0.813948,1.218766,3.799498,4.995317
76,1.774938,0.052313,-1.201884,-0.042164,0.030116,-0.809933,1.659393,3.610551,4.051179
77,1.767982,0.047447,-1.207048,-0.054211,0.042967,-0.822784,1.344681,3.799498,4.743636
78,1.774938,0.030415,-1.225121,-0.053407,0.039754,-0.813146,1.659393,3.673583,4.932433
79,1.770301,0.045014,-1.191556,-0.04618,0.031723,-0.810735,1.596361,3.736466,4.177094
80,1.772619,0.042581,-1.219957,-0.049391,0.034132,-0.817964,1.533478,3.610551,4.365891
81,1.772619,0.042581,-1.219957,-0.063848,0.029314,-0.813948,1.344681,3.610551,4.428923
82,1.765663,0.052313,-1.188974,-0.057422,0.050193,-0.820373,1.911074,3.358871,4.554689
83,1.770301,0.030415,-1.20963,-0.058226,0.03654,-0.825995,1.155883,3.925264,4.554689
84,1.781894,0.037714,-1.230285,-0.061437,0.038951,-0.794673,1.407564,3.610551,4.743636
85,1.779575,0.040147,-1.20963,-0.065453,0.04136,-0.819571,1.533478,3.547668,4.491806
86,1.781894,0.035281,-1.217375,-0.060635,0.034132,-0.822784,1.596361,3.484786,4.365891
87,1.774938,0.045014,-1.230285,-0.060635,0.032525,-0.826799,1.155883,3.295839,4.428923
88,1.774938,0.045014,-1.230285,-0.053407,0.045376,-0.823586,1.344681,3.610551,4.491806
89,1.78885,0.045014,-1.212212,-0.050998,0.035738,-0.822784,1.785308,3.484786,4.743636
90,1.779575,0.040147,-1.238031,-0.058226,0.031723,-0.825995,1.281649,3.421754,4.177094
91,1.779575,0.040147,-1.238031,-0.058226,0.039754,-0.821979,1.407564,3.736466,4.554689
92,1.772619,0.040147,-1.227703,-0.047784,0.035738,-0.819571,1.218766,3.421754,4.239976
93,1.774938,0.045014,-1.227703,-0.053407,0.034934,-0.813146,1.281649,3.358871,4.239976
94,1.774938,0.045014,-1.227703,-0.062242,0.033329,-0.835632,1.470596,3.736466,4.365891
95,1.777257,0.042581,-1.253522,-0.061437,0.039754,-0.807524,1.470596,3.358871,3.925264
96,1.779575,0.030415,-1.230285,-0.064651,0.045376,-0.83483,1.596361,3.799498,4.365891
97,1.777257,0.04988,-1.225121,-0.04618,0.030116,-0.833224,1.344681,3.673583,4.365891
98,1.784212,0.035281,-1.240613,-0.058226,0.037345,-0.815555,1.533478,3.736466,3.988296
99,1.774938,0.04988,-1.227703,-0.060635,0.03654,-0.794673,1.785308,3.484786,4.365891
100,1.774938,0.045014,-1.232867,-0.062242,0.034934,-0.826799,1.281649,3.862381,4.114211
101,1.774938,0.045014,-1.232867,-0.05662,0.046982,-0.8011,1.281649,3.484786,4.239976
102,1.779575,0.040147,-1.219957,-0.057422,0.038951,-0.809933,1.407564,3.484786,4.239976
103,1.777257,0.052313,-1.240613,-0.050998,0.038951,-0.833224,1.092851,3.673583,4.680604
104,1.779575,0.037714,-1.232867,-0.061437,0.03654,-0.81154,1.281649,3.610551,4.428923
105,1.770301,0.045014,-1.201884,-0.055013,0.028509,-0.80672,1.281649,3.736466,4.303008
106,1.777257,0.047447,-1.217375,-0.05662,0.034934,-0.793069,0.904053,3.484786,4.428923
107,1.777257,0.047447,-1.217375,-0.059831,0.024494,-0.805918,1.848191,3.610551,4.554689
108,1.774938,0.040147,-1.212212,-0.048589,0.039754,-0.827601,1.470596,3.421754,4.743636
109,1.779575,0.035281,-1.232867,-0.055013,0.04136,-0.825193,1.281649,3.673583,4.491806
110,1.774938,0.040147,-1.217375,-0.068666,0.038147,-0.823586,1.533478,3.358871,5.310029
111,1.781894,0.057179,-1.227703,-0.0518,0.032525,-0.807524,1.470596,3.232956,4.365891
112,1.779575,0.04988,-1.245777,-0.050998,0.039754,-0.833224,1.533478,3.295839,4.680604
113,1.781894,0.045014,-1.219957,-0.053407,0.034132,-0.802704,1.596361,3.673583,4.617721
114,1.781894,0.045014,-1.219957,-0.064651,0.039754,-0.821177,1.596361,3.547668,4.428923
115,1.774938,0.037714,-1.235449,-0.058226,0.034132,-0.823586,1.470596,3.925264,4.554689
116,1.777257,0.035281,-1.232867,-0.054211,0.040556,-0.829208,1.470596,3.547668,4.365891
117,1.770301,0.047447,-1.245777,-0.059029,0.045376,-0.825995,1.155883,3.421754,4.114211
118,1.772619,0.047447,-1.238031,-0.0518,0.032525,-0.824388,1.596361,3.736466,4.680604
119,1.772619,0.047447,-1.261268,-0.055013,0.042967,-0.814753,1.533478,3.610551,4.428923
120,1.772619,0.047447,-1.261268,-0.054211,0.039754,-0.824388,1.848191,3.547668,4.554689
121,1.770301,0.054746,-1.248359,-0.059029,0.04136,-0.807524,1.596361,3.170073,4.554689
122,1.774938,0.045014,-1.225121,-0.061437,0.049391,-0.825193,1.281649,3.547668,4.051179
123,1.765663,0.04988,-1.238031,-0.049391,0.042967,-0.83001,1.722276,3.736466,4.491806
124,1.770301,0.045014,-1.243195,-0.054211,0.033329,-0.805115,1.659393,3.862381,4.680604
125,1.774938,0.040147,-1.230285,-0.060635,0.043769,-0.810735,1.155883,3.358871,4.491806
126,1.781894,0.042581,-1.235449,-0.059831,0.033329,-0.823586,1.344681,3.925264,4.114211
127,1.781894,0.042581,-1.235449,-0.061437,0.047784,-0.836437,1.218766,3.610551,4.617721
128,1.779575,0.040147,-1.238031,-0.050998,0.03654,-0.847679,1.407564,3.673583,4.428923
129,1.774938,0.040147,-1.253522,-0.05662,0.038951,-0.817162,1.596361,3.547668,4.365891
130,1.779575,0.035281,-1.245777,-0.052604,0.034132,-0.823586,1.407564,3.547668,4.743636
131,1.774938,0.037714,-1.235449,-0.048589,0.038951,-0.807524,1.407564,3.547668,4.806519
132,1.779575,0.045014,-1.243195,-0.054211,0.042967,-0.81154,1.596361,3.421754,4.554689
133,1.779575,0.035281,-1.235449,-0.053407,0.034934,-0.814753,1.344681,3.547668,4.554689
134,1.779575,0.035281,-1.235449,-0.054211,0.037345,-0.826799,1.344681,3.673583,4.491806
135,1.770301,0.042581,-1.227703,-0.061437,0.030918,-0.820373,1.407564,3.736466,4.554689
136,1.777257,0.045014,-1.212212,-0.054211,0.045376,-0.79628,1.281649,3.232956,4.680604
137,1.772619,0.040147,-1.217375,-0.046982,0.031723,-0.821177,1.533478,3.799498,4.365891
138,1.767982,0.042581,-1.235449,-0.055013,0.043769,-0.828404,1.281649,3.610551,4.554689
139,1.770301,0.037714,-1.225121,-0.050998,0.04136,-0.825193,1.407564,3.044158,4.491806
140,1.770301,0.037714,-1.225121,-0.06706,0.03654,-0.815555,1.470596,3.736466,4.303008
141,1.774938,0.042581,-1.240613,-0.048589,0.030116,-0.829208,1.407564,3.547668,4.680604
142,1.779575,0.037714,-1.219957,-0.055013,0.038951,-0.836437,1.407564,3.107041,4.051179
143,1.777257,0.045014,-1.26385,-0.062242,0.046982,-0.83483,1.533478,3.295839,4.491806
144,1.781894,0.04988,-1.245777,-0.064651,0.042967,-0.837239,1.470596,3.358871,4.428923
145,1.770301,0.030415,-1.253522,-0.055815,0.034934,-0.813948,1.533478,3.421754,4.680604
146,1.774938,0.04988,-1.256104,-0.053407,0.038951,-0.819571,1.281649,3.673583,4.932433
147,1.774938,0.04988,-1.256104,-0.052604,0.033329,-0.824388,1.533478,3.799498,4.365891
148,1.774938,0.040147,-1.214794,-0.055013,0.045376,-0.854907,1.533478,3.799498,4.617721
149,1.772619,0.045014,-1.238031,-0.050195,0.037345,-0.817162,1.785308,3.673583,4.617721
150,1.781894,0.027981,-1.261268,-0.058226,0.043769,-0.799493,1.470596,3.736466,4.491806
151,1.779575,0.040147,-1.256104,-0.059029,0.047784,-0.81154,1.533478,3.799498,4.303008
152,1.777257,0.045014,-1.261268,-0.055815,0.037345,-0.832419,1.281649,3.610551,4.303008
153,1.777257,0.045014,-1.261268,-0.055815,0.045376,-0.818768,1.281649,3.421754,4.554689
154,1.779575,0.047447,-1.222539,-0.062242,0.034934,-0.813146,1.281649,3.421754,3.925264
155,1.78885,0.04988,-1.222539,-0.05662,0.039754,-0.81154,1.407564,3.358871,4.177094
156,1.791168,0.047447,-1.230285,-0.060635,0.037345,-0.824388,1.659393,3.610551,4.491806
157,1.774938,0.04988,-1.245777,-0.065453,0.044571,-0.83001,1.470596,3.925264,4.428923
158,1.779575,0.032848,-1.240613,-0.057422,0.040556,-0.800295,1.155883,3.358871,4.177094
159,1.779575,0.042581,-1.225121,-0.060635,0.053407,-0.827601,1.344681,3.736466,4.428923
160,1.779575,0.042581,-1.225121,-0.042967,0.024494,-0.838041,1.407564,3.673583,4.743636
161,1.791168,0.052313,-1.225121,-0.04618,0.033329,-0.819571,1.596361,3.673583,4.491806
162,1.784212,0.04988,-1.20963,-0.066257,0.030116,-0.821979,1.407564,3.610551,4.365891
163,1.770301,0.057179,-1.243195,-0.053407,0.031723,-0.823586,0.904053,3.610551,4.491806
164,1.779575,0.037714,-1.248359,-0.052604,0.040556,-0.822784,1.344681,3.673583,4.806519
165,1.772619,0.047447,-1.225121,-0.055815,0.042967,-0.831617,1.407564,3.736466,4.617721
166,1.777257,0.057179,-1.214794,-0.050195,0.049391,-0.835632,1.407564,4.177094,4.365891
167,1.777257,0.057179,-1.214794,-0.050998,0.04136,-0.800295,1.659393,3.673583,4.114211
168,1.779575,0.045014,-1.225121,-0.061437,0.037345,-0.828404,1.722276,3.547668,4.303008
169,1.772619,0.04988,-1.232867,-0.050195,0.03654,-0.817964,1.533478,3.547668,4.491806
170,1.777257,0.052313,-1.222539,-0.058226,0.026101,-0.805918,1.407564,3.547668,4.365891
171,1.774938,0.047447,-1.222539,-0.063044,0.055815,-0.824388,1.407564,3.736466,4.554689
172,1.781894,0.047447,-1.243195,-0.050998,0.040556,-0.815555,1.407564,3.547668,4.177094
173,1.781894,0.047447,-1.243195,-0.060635,0.026101,-0.838846,1.281649,3.421754,4.869551
174,1.767982,0.04988,-1.212212,-0.060635,0.046982,-0.817964,1.407564,3.673583,4.051179
175,1.767982,0.047447,-1.225121,-0.050195,0.043769,-0.80672,1.470596,3.673583,4.680604
176,1.772619,0.047447,-1.245777,-0.061437,0.043769,-0.814753,1.659393,3.610551,4.428923
177,1.781894,0.045014,-1.253522,-0.037345,0.04136,-0.824388,1.344681,3.799498,4.428923
178,1.784212,0.042581,-1.25094,-0.050998,0.035738,-0.824388,1.407564,3.547668,4.680604
179,1.786531,0.042581,-1.245777,-0.049391,0.033329,-0.816357,1.470596,3.421754,4.114211
180,1.786531,0.042581,-1.245777,-0.053407,0.043769,-0.819571,1.407564,3.232956,4.995317
181,1.786531,0.035281,-1.243195,-0.050195,0.034934,-0.819571,1.785308,3.610551,5.184263
182,1.774938,0.040147,-1.222539,-0.050998,0.034132,-0.819571,1.659393,3.862381,4.743636
183,1.777257,0.042581,-1.243195,-0.074288,0.050998,-0.825995,1.344681,3.736466,4.177094
184,1.777257,0.045014,-1.214794,-0.054211,0.034934,-0.801902,1.281649,3.610551,4.365891
185,1.774938,0.045014,-1.214794,-0.055815,0.038951,-0.81154,1.092851,3.925264,4.743636
186,1.774938,0.045014,-1.214794,-0.060635,0.049391,-0.820373,1.344681,3.862381,4.869551
187,1.781894,0.045014,-1.20963,-0.063044,0.052602,-0.814753,1.155883,3.421754,4.491806
188,1.772619,0.045014,-1.232867,-0.055013,0.035738,-0.820373,1.659393,3.862381,4.177094
189,1.777257,0.040147,-1.258686,-0.057422,0.039754,-0.805115,1.659393,3.673583,4.239976
190,1.774938,0.054746,-1.256104,-0.059029,0.039754,-0.809933,1.596361,3.421754,4.554689
191,1.774938,0.04988,-1.25094,-0.0518,0.034132,-0.818768,1.407564,3.862381,4.239976
192,1.784212,0.045014,-1.25094,-0.059029,0.042967,-0.817964,1.785308,3.610551,4.239976
193,1.784212,0.045014,-1.25094,-0.066257,0.054209,-0.813948,1.407564,3.421754,3.988296
194,1.779575,0.032848,-1.25094,-0.063848,0.038147,-0.810735,1.470596,3.610551,4.428923
195,1.779575,0.040147,-1.274178,-0.064651,0.043769,-0.821177,1.659393,3.799498,4.617721
196,1.779575,0.040147,-1.240613,-0.055815,0.038147,-0.839648,1.218766,3.107041,4.428923
197,1.774938,0.040147,-1.230285,-0.063848,0.046178,-0.807524,1.218766,3.484786,5.058348
198,1.779575,0.037714,-1.256104,-0.057422,0.040556,-0.813948,1.596361,3.736466,4.051179
199,1.779575,0.037714,-1.256104,-0.060635,0.038147,-0.817964,1.470596,3.673583,4.869551
200,1.779575,0.035281,-1.212212,-0.054211,0.042967,-0.809933,1.533478,3.358871,4.554689
201,1.770301,0.035281,-1.243195,-0.054211,0.034934,-0.828404,1.281649,3.610551,4.869551
202,1.784212,0.032848,-1.227703,-0.063044,0.034132,-0.805115,1.848191,3.421754,4.491806
203,1.774938,0.035281,-1.256104,-0.044573,0.034132,-0.817162,1.785308,3.736466,4.806519
204,1.791168,0.037714,-1.222539,-0.055013,0.03654,-0.814753,1.407564,3.799498,4.743636
205,1.784212,0.027981,-1.245777,-0.049391,0.042162,-0.819571,1.533478,3.421754,4.869551
206,1.784212,0.027981,-1.245777,-0.055815,0.039754,-0.824388,1.470596,3.862381,4.680604
207,1.770301,0.035281,-1.261268,-0.050195,0.037345,-0.822784,1.533478,3.484786,3.988296
208,1.781894,0.015816,-1.235449,-0.05662,0.035738,-0.799493,1.533478,4.051179,4.554689
209,1.772619,0.045014,-1.253522,-0.047784,0.030116,-0.833224,1.155883,3.736466,4.303008
210,1.784212,0.032848,-1.240613,-0.050998,0.03654,-0.80672,1.659393,3.421754,4.428923
211,1.779575,0.037714,-1.222539,-0.055815,0.045376,-0.821979,1.659393,3.547668,4.365891
212,1.779575,0.037714,-1.222539,-0.065453,0.040556,-0.824388,1.470596,3.736466,4.114211
213,1.777257,0.032848,-1.232867,-0.061437,0.032525,-0.814753,1.092851,3.673583,4.239976
214,1.774938,0.030415,-1.238031,-0.045376,0.030918,-0.846072,1.722276,3.547668,4.617721
215,1.784212,0.035281,-1.238031,-0.04618,0.044571,-0.820373,1.596361,3.862381,4.743636
216,1.777257,0.035281,-1.227703,-0.063848,0.038951,-0.808326,1.596361,3.421754,4.680604
217,1.772619,0.040147,-1.232867,-0.063044,0.042967,-0.812342,1.722276,3.295839,4.491806
218,1.781894,0.027981,-1.225121,-0.055013,0.033329,-0.816357,1.407564,3.547668,4.491806
219,1.781894,0.027981,-1.225121,-0.061437,0.037345,-0.810735,1.344681,3.736466,4.554689
220,1.777257,0.035281,-1.232867,-0.058226,0.040556,-0.822784,1.470596,4.051179,4.365891
221,1.770301,0.030415,-1.227703,-0.047784,0.042162,-0.833224,1.344681,3.610551,4.303008
222,1.767982,0.040147,-1.248359,-0.054211,0.037345,-0.80672,1.281649,3.925264,4.680604
223,1.777257,0.040147,-1.222539,-0.05662,0.025298,-0.818768,1.533478,3.673583,4.177094
224,1.765663,0.035281,-1.201884,-0.061437,0.032525,-0.815555,1.533478,3.610551,5.310029
225,1.770301,0.040147,-1.248359,-0.055013,0.034934,-0.802704,1.407564,3.925264,4.491806
226,1.770301,0.040147,-1.248359,-0.048589,0.044571,-0.829208,1.407564,3.610551,4.680604
227,1.767982,0.037714,-1.204466,-0.063044,0.039754,-0.818768,1.659393,3.421754,4.303008
228,1.784212,0.040147,-1.248359,-0.052604,0.03654,-0.809933,1.407564,3.736466,4.177094
229,1.779575,0.045014,-1.222539,-0.054211,0.035738,-0.810735,1.344681,3.673583,4.932433
230,1.761026,0.047447,-1.243195,-0.064651,0.044571,-0.827601,1.533478,3.484786,4.743636
231,1.772619,0.040147,-1.238031,-0.052604,0.040556,-0.813948,1.785308,3.295839,4.303008
232,1.772619,0.040147,-1.238031,-0.052604,0.043769,-0.797084,1.659393,3.547668,4.428923
233,1.767982,0.025548,-1.243195,-0.05662,0.03654,-0.827601,1.281649,3.673583,4.428923
234,1.774938,0.035281,-1.240613,-0.04618,0.030116,-0.8011,1.407564,4.051179,4.554689
235,1.779575,0.040147,-1.240613,-0.05662,0.046178,-0.847679,1.911074,3.673583,4.177094
236,1.774938,0.020682,-1.227703,-0.062242,0.0518,-0.818768,1.470596,4.051179,4.114211
237,1.772619,0.035281,-1.232867,-0.049391,0.028509,-0.832419,1.407564,3.799498,4.680604
238,1.779575,0.037714,-1.238031,-0.064651,0.040556,-0.821979,1.596361,3.484786,4.114211
239,1.779575,0.037714,-1.238031,-0.042967,0.032525,-0.826799,1.407564,3.610551,4.932433
240,1.767982,0.032848,-1.232867,-0.053407,0.045376,-0.819571,1.470596,3.673583,4.177094
241,1.767982,0.042581,-1.240613,-0.066257,0.045376,-0.814753,1.281649,3.673583,4.554689
242,1.779575,0.037714,-1.256104,-0.053407,0.04136,-0.836437,1.596361,3.799498,4.491806
243,1.770301,0.047447,-1.245777,-0.050998,0.039754,-0.839648,1.344681,3.547668,4.680604
244,1.763345,0.042581,-1.27676,-0.055815,0.044571,-0.79628,1.596361,3.547668,4.428923
245,1.763345,0.042581,-1.27676,-0.064651,0.034934,-0.820373,1.722276,3.484786,4.680604
246,1.774938,0.040147,-1.248359,-0.059831,0.040556,-0.817964,1.785308,3.295839,4.743636
247,1.777257,0.040147,-1.20963,-0.064651,0.034934,-0.821177,1.281649,3.484786,4.365891
248,1.779575,0.040147,-1.232867,-0.060635,0.043769,-0.83001,1.344681,3.610551,4.303008
249,1.763345,0.035281,-1.232867,-0.048589,0.028509,-0.817162,1.722276,3.547668,4.491806
250,1.772619,0.037714,-1.230285,-0.062242,0.043769,-0.801902,1.407564,3.547668,4.869551
251,1.770301,0.037714,-1.243195,-0.055013,0.038147,-0.820373,1.470596,4.051179,4.303008
252,1.770301,0.037714,-1.243195,-0.055815,0.050193,-0.832419,1.533478,3.421754,4.554689
253,1.772619,0.037714,-1.222539,-0.050998,0.039754,-0.804311,1.596361,3.925264,4.428923
254,1.767982,0.032848,-1.245777,-0.055013,0.033329,-0.812342,1.344681,3.547668,4.239976
255,1.767982,0.052313,-1.25094,-0.055013,0.034132,-0.826799,1.470596,3.925264,4.554689
256,1.765663,0.037714,-1.240613,-0.061437,0.048587,-0.825995,1.659393,3.862381,3.925264
257,1.770301,0.037714,-1.230285,-0.048589,0.038147,-0.8011,1.344681,3.799498,4.114211
258,1.770301,0.037714,-1.230285,-0.061437,0.03654,-0.819571,1.470596,3.799498,4.303008
259,1.779575,0.047447,-1.240613,-0.060635,0.033329,-0.833224,1.785308,4.114211,4.239976
260,1.777257,0.047447,-1.235449,-0.050195,0.026101,-0.821979,1.281649,3.736466,4.743636
261,1.777257,0.040147,-1.25094,-0.0518,0.042967,-0.808326,1.785308,3.547668,4.491806
262,1.781894,0.045014,-1.207048,-0.052604,0.040556,-0.820373,2.100021,3.799498,4.743636
263,1.779575,0.030415,-1.238031,-0.061437,0.040556,-0.841254,1.596361,3.736466,4.554689
264,1.779575,0.040147,-1.227703,-0.055815,0.048587,-0.820373,1.596361,3.232956,4.491806
265,1.779575,0.040147,-1.227703,-0.05662,0.054209,-0.831617,1.407564,3.610551,4.239976
266,1.779575,0.027981,-1.258686,-0.052604,0.032525,-0.794673,1.596361,3.799498,4.428923
267,1.767982,0.035281,-1.222539,-0.055815,0.040556,-0.826799,1.596361,3.547668,4.491806
268,1.777257,0.027981,-1.240613,-0.059029,0.043769,-0.817162,1.407564,3.547668,4.491806
269,1.777257,0.040147,-1.245777,-0.050195,0.039754,-0.825995,1.596361,3.925264,4.303008
270,1.781894,0.025548,-1.230285,-0.050998,0.042162,-0.820373,1.722276,3.673583,4.554689
271,1.781894,0.025548,-1.230285,-0.055013,0.047784,-0.829208,1.659393,3.610551,3.862381
272,1.770301,0.030415,-1.235449,-0.049391,0.030116,-0.841254,1.470596,3.862381,4.365891
273,1.777257,0.032848,-1.240613,-0.058226,0.042162,-0.81154,1.407564,3.673583,4.617721
274,1.781894,0.042581,-1.225121,-0.060635,0.034934,-0.817964,1.659393,3.610551,4.051179
275,1.781894,0.045014,-1.271596,-0.052604,0.046982,-0.816357,1.407564,3.673583,4.428923
276,1.777257,0.032848,-1.243195,-0.055013,0.040556,-0.823586,1.533478,3.610551,4.617721
277,1.774938,0.032848,-1.235449,-0.049391,0.030918,-0.820373,1.344681,3.421754,4.995317
278,1.774938,0.032848,-1.235449,-0.064651,0.047784,-0.789053,1.533478,3.862381,4.806519
279,1.779575,0.035281,-1.245777,-0.055013,0.040556,-0.813948,1.596361,3.862381,4.114211
280,1.772619,0.027981,-1.225121,-0.05662,0.042967,-0.813146,1.029968,3.484786,5.058348
281,1.772619,0.032848,-1.238031,-0.057422,0.042967,-0.824388,1.344681,3.358871,4.743636
282,1.777257,0.027981,-1.222539,-0.05662,0.032525,-0.833224,1.470596,3.925264,4.239976
283,1.774938,0.030415,-1.248359,-0.04618,0.04136,-0.833224,1.407564,3.484786,4.303008
284,1.774938,0.030415,-1.248359,-0.061437,0.030116,-0.817162,1.533478,3.610551,4.365891
285,1.786531,0.037714,-1.240613,-0.052604,0.038951,-0.803509,1.218766,3.862381,4.554689
286,1.774938,0.032848,-1.227703,-0.0518,0.044571,-0.843663,1.533478,3.862381,4.995317
287,1.781894,0.030415,-1.207048,-0.054211,0.033329,-0.801902,1.659393,4.239976,4.428923
288,1.777257,0.035281,-1.240613,-0.058226,0.048587,-0.828404,1.407564,3.358871,4.303008
289,1.774938,0.035281,-1.232867,-0.060635,0.034132,-0.839648,1.407564,3.547668,4.617721
290,1.777257,0.035281,-1.240613,-0.05662,0.030918,-0.816357,1.281649,3.610551,4.554689
291,1.777257,0.035281,-1.240613,-0.060635,0.049391,-0.797887,1.722276,3.484786,3.925264
292,1.784212,0.052313,-1.227703,-0.064651,0.052602,-0.818768,1.407564,3.610551,3.799498
293,1.774938,0.045014,-1.212212,-0.054211,0.038147,-0.808326,1.659393,3.610551,4.554689
294,1.793487,0.045014,-1.256104,-0.061437,0.04136,-0.828404,1.596361,3.610551,4.428923
295,1.784212,0.035281,-1.214794,-0.050998,0.040556,-0.83001,1.407564,3.358871,4.743636
296,1.777257,0.035281,-1.217375,-0.054211,0.03654,-0.821177,1.722276,3.610551,4.554689
297,1.777257,0.040147,-1.201884,-0.065453,0.04136,-0.800295,1.407564,3.673583,4.554689
298,1.777257,0.040147,-1.201884,-0.049391,0.047784,-0.830815,1.470596,3.925264,4.428923
299,1.781894,0.035281,-1.222539,-0.063848,0.034934,-0.817964,2.100021,3.736466,4.239976
300,1.791168,0.037714,-1.230285,-0.061437,0.034132,-0.813146,1.470596,3.673583,4.114211
301,1.779575,0.032848,-1.217375,-0.054211,0.032525,-0.819571,1.659393,4.114211,4.365891
302,1.779575,0.030415,-1.217375,-0.063044,0.04136,-0.816357,1.407564,3.799498,4.303008
303,1.777257,0.032848,-1.230285,-0.057422,0.042162,-0.815555,1.407564,3.988296,4.617721
304,1.777257,0.032848,-1.230285,-0.058226,0.034934,-0.808326,1.533478,3.610551,4.491806
305,1.777257,0.035281,-1.248359,-0.045376,0.032525,-0.823586,1.911074,3.799498,4.617721
306,1.777257,0.040147,-1.258686,-0.05662,0.034934,-0.809933,1.218766,3.736466,4.114211
307,1.774938,0.040147,-1.253522,-0.049391,0.042967,-0.807524,1.848191,3.610551,4.617721
308,1.777257,0.032848,-1.232867,-0.059831,0.039754,-0.798689,1.596361,3.547668,4.617721
309,1.786531,0.035281,-1.261268,-0.048589,0.039754,-0.81154,1.848191,3.421754,4.428923
310,1.791168,0.037714,-1.227703,-0.057422,0.038951,-0.804311,1.533478,3.925264,4.365891
311,1.791168,0.037714,-1.227703,-0.050195,0.040556,-0.817162,1.533478,3.610551,4.239976
312,1.781894,0.040147,-1.225121,-0.059831,0.037345,-0.804311,1.407564,3.610551,4.428923
313,1.774938,0.027981,-1.225121,-0.061437,0.038147,-0.818768,1.596361,3.547668,4.428923
314,1.774938,0.037714,-1.227703,-0.063044,0.037345,-0.822784,1.659393,3.862381,4.743636
315,1.777257,0.030415,-1.232867,-0.058226,0.040556,-0.819571,1.281649,3.736466,4.303008
316,1.774938,0.037714,-1.219957,-0.0518,0.030116,-0.824388,1.407564,3.610551,4.428923
317,1.774938,0.037714,-1.219957,-0.044573,0.030918,-0.804311,1.407564,3.421754,4.428923
318,1.772619,0.035281,-1.217375,-0.054211,0.038951,-0.815555,1.848191,3.799498,4.743636
319,1.763345,0.030415,-1.230285,-0.061437,0.049391,-0.823586,1.533478,3.736466,4.365891
320,1.777257,0.035281,-1.19672,-0.054211,0.045376,-0.823586,1.659393,3.170073,3.925264
321,1.781894,0.032848,-1.212212,-0.05662,0.047784,-0.824388,1.533478,3.547668,4.491806
322,1.784212,0.042581,-1.230285,-0.042967,0.045376,-0.823586,1.533478,3.484786,4.743636
323,1.781894,0.025548,-1.243195,-0.059831,0.043769,-0.833224,1.722276,3.673583,4.743636
324,1.781894,0.025548,-1.243195,-0.057422,0.045376,-0.829208,1.470596,3.673583,4.806519
325,1.770301,0.035281,-1.245777,-0.0518,0.026101,-0.793871,1.155883,3.610551,4.428923
326,1.784212,0.032848,-1.214794,-0.055815,0.038147,-0.829208,1.029968,3.925264,4.932433
327,1.765663,0.030415,-1.217375,-0.045376,0.030918,-0.807524,1.407564,3.673583,4.177094
328,1.772619,0.032848,-1.243195,-0.062242,0.042162,-0.810735,1.281649,3.736466,4.491806
329,1.774938,0.040147,-1.230285,-0.055815,0.046178,-0.805918,1.218766,3.925264,4.239976
330,1.774938,0.040147,-1.230285,-0.057422,0.039754,-0.825995,1.407564,3.862381,4.554689
331,1.777257,0.040147,-1.26385,-0.054211,0.034132,-0.815555,1.470596,3.925264,4.365891
332,1.781894,0.032848,-1.240613,-0.068666,0.050998,-0.816357,1.092851,3.799498,4.806519
333,1.772619,0.035281,-1.243195,-0.055815,0.034132,-0.820373,1.470596,3.799498,4.806519
334,1.779575,0.018249,-1.20963,-0.063044,0.042162,-0.824388,1.029968,3.421754,4.177094
335,1.781894,0.045014,-1.240613,-0.059831,0.03654,-0.824388,1.596361,3.925264,4.365891
336,1.772619,0.037714,-1.238031,-0.054211,0.04136,-0.819571,1.407564,3.736466,4.428923
337,1.772619,0.037714,-1.238031,-0.053407,0.04136,-0.809933,1.596361,3.799498,4.303008
338,1.786531,0.037714,-1.225121,-0.054211,0.028509,-0.822784,1.344681,3.547668,4.177094
339,1.774938,0.037714,-1.222539,-0.059029,0.04136,-0.832419,1.533478,3.421754,4.680604
340,1.784212,0.032848,-1.225121,-0.053407,0.043769,-0.815555,1.281649,3.673583,4.239976
341,1.772619,0.035281,-1.230285,-0.046982,0.037345,-0.825995,1.470596,3.736466,4.554689
342,1.777257,0.023115,-1.248359,-0.055815,0.037345,-0.814753,1.596361,3.232956,5.121231
343,1.770301,0.035281,-1.232867,-0.050195,0.034934,-0.824388,1.344681,3.547668,4.114211
344,1.770301,0.035281,-1.232867,-0.055815,0.040556,-0.828404,1.596361,3.547668,4.177094
345,1.774938,0.035281,-1.227703,-0.055815,0.034132,-0.816357,1.848191,3.610551,4.743636
346,1.781894,0.032848,-1.227703,-0.052604,0.026101,-0.795478,1.407564,3.862381,5.184263
347,1.774938,0.030415,-1.207048,-0.062242,0.042967,-0.830815,1.596361,3.610551,4.303008
348,1.774938,0.035281,-1.238031,-0.059029,0.038951,-0.826799,1.596361,3.673583,4.680604
349,1.770301,0.032848,-1.222539,-0.062242,0.038951,-0.81154,1.344681,4.177094,4.239976
350,1.770301,0.032848,-1.222539,-0.053407,0.031723,-0.79628,1.722276,3.673583,5.121231
351,1.767982,0.042581,-1.225121,-0.053407,0.034934,-0.815555,1.659393,3.421754,4.303008
352,1.772619,0.032848,-1.240613,-0.066257,0.040556,-0.83483,1.533478,3.484786,4.680604
353,1.772619,0.042581,-1.238031,-0.058226,0.048587,-0.801902,1.596361,3.925264,4.554689
354,1.786531,0.032848,-1.253522,-0.055815,0.032525,-0.83483,1.596361,3.988296,4.114211
355,1.774938,0.040147,-1.225121,-0.063044,0.040556,-0.830815,1.533478,3.673583,4.743636
356,1.767982,0.035281,-1.240613,-0.054211,0.054209,-0.829208,1.722276,3.673583,4.554689
357,1.767982,0.035281,-1.240613,-0.063848,0.046178,-0.809933,1.281649,3.673583,4.051179
358,1.765663,0.035281,-1.238031,-0.053407,0.045376,-0.799493,1.344681,4.114211,3.988296
359,1.777257,0.037714,-1.212212,-0.067864,0.035738,-0.823586,1.407564,3.547668,4.428923
360,1.770301,0.023115,-1.26385,-0.060635,0.03654,-0.817162,1.407564,3.862381,4.554689
361,1.777257,0.042581,-1.25094,-0.060635,0.045376,-0.820373,1.785308,3.610551,4.617721
362,1.770301,0.025548,-1.240613,-0.057422,0.032525,-0.797084,1.659393,3.799498,4.491806
363,1.770301,0.025548,-1.240613,-0.049391,0.034132,-0.838846,1.533478,3.484786,4.365891
364,1.777257,0.032848,-1.212212,-0.066257,0.031723,-0.809131,1.533478,3.736466,4.491806
365,1.779575,0.023115,-1.225121,-0.050998,0.03654,-0.807524,1.470596,3.862381,4.303008
366,1.78885,0.032848,-1.212212,-0.061437,0.038951,-0.818768,1.344681,3.799498,4.303008
367,1.761026,0.027981,-1.240613,-0.061437,0.048587,-0.810735,1.722276,3.673583,4.554689
368,1.761026,0.030415,-1.261268,-0.057422,0.033329,-0.799493,1.659393,3.610551,4.239976
369,1.770301,0.032848,-1.243195,-0.059029,0.050998,-0.821177,1.344681,3.673583,4.428923
370,1.770301,0.032848,-1.243195,-0.063044,0.038951,-0.834026,1.722276,3.799498,4.303008
371,1.770301,0.045014,-1.271596,-0.061437,0.042162,-0.808326,1.659393,3.610551,4.743636
372,1.781894,0.032848,-1.230285,-0.062242,0.049391,-0.816357,1.470596,3.610551,4.617721
373,1.779575,0.027981,-1.258686,-0.0518,0.039754,-0.818768,1.722276,3.799498,4.365891
374,1.774938,0.027981,-1.261268,-0.055815,0.048587,-0.813146,1.344681,3.736466,4.491806
375,1.774938,0.027981,-1.256104,-0.053407,0.01807,-0.83001,1.344681,3.421754,4.365891
376,1.774938,0.027981,-1.256104,-0.058226,0.042967,-0.825193,1.533478,3.484786,4.365891
377,1.777257,0.042581,-1.253522,-0.061437,0.040556,-0.819571,1.722276,3.862381,4.114211
378,1.777257,0.035281,-1.230285,-0.055815,0.033329,-0.821177,1.659393,3.610551,4.617721
379,1.770301,0.030415,-1.227703,-0.050998,0.046178,-0.805918,1.785308,3.547668,4.617721
380,1.774938,0.027981,-1.240613,-0.066257,0.043769,-0.835632,1.533478,3.673583,4.617721
381,1.779575,0.035281,-1.214794,-0.0518,0.034132,-0.821979,1.533478,3.799498,4.554689
382,1.781894,0.035281,-1.243195,-0.058226,0.039754,-0.821979,1.785308,3.799498,4.428923
383,1.781894,0.035281,-1.243195,-0.055815,0.033329,-0.821979,1.596361,3.736466,4.680604
384,1.781894,0.030415,-1.219957,-0.047784,0.033329,-0.824388,1.155883,3.610551,4.869551
385,1.774938,0.023115,-1.219957,-0.055013,0.043769,-0.829208,1.785308,3.862381,4.554689
386,1.779575,0.032848,-1.245777,-0.050195,0.038951,-0.788249,1.722276,3.673583,4.051179
387,1.786531,0.040147,-1.232867,-0.057422,0.03654,-0.821979,1.470596,3.547668,4.554689
388,1.786531,0.035281,-1.245777,-0.061437,0.028509,-0.813146,1.722276,3.988296,4.680604
389,1.786531,0.035281,-1.245777,-0.047784,0.03654,-0.794673,1.344681,3.736466,4.680604
390,1.777257,0.035281,-1.230285,-0.058226,0.033329,-0.840452,1.533478,3.799498,4.743636
391,1.763345,0.035281,-1.230285,-0.063044,0.043769,-0.834026,1.596361,3.799498,4.680604
392,1.777257,0.037714,-1.232867,-0.052604,0.026903,-0.817964,1.407564,3.799498,4.554689
393,1.770301,0.027981,-1.227703,-0.05662,0.046178,-0.804311,1.722276,3.673583,4.491806
394,1.781894,0.035281,-1.212212,-0.059831,0.043769,-0.841254,1.281649,3.421754,4.491806
395,1.774938,0.037714,-1.214794,-0.0518,0.035738,-0.820373,1.470596,3.421754,4.365891
396,1.774938,0.037714,-1.214794,-0.055013,0.034934,-0.809131,1.407564,3.421754,4.239976
397,1.772619,0.047447,-1.225121,-0.052604,0.04136,-0.826799,1.281649,3.799498,4.806519
398,1.777257,0.023115,-1.243195,-0.04618,0.037345,-0.81154,1.344681,3.673583,4.491806
399,1.774938,0.032848,-1.232867,-0.053407,0.039754,-0.787447,1.470596,3.610551,4.806519
400,1.772619,0.035281,-1.235449,-0.061437,0.040556,-0.794673,1.596361,3.610551,4.743636
401,1.770301,0.045014,-1.207048,-0.054211,0.033329,-0.81154,1.659393,3.610551,4.680604
402,1.770301,0.045014,-1.207048,-0.043769,0.038951,-0.816357,1.848191,3.925264,4.743636
403,1.774938,0.040147,-1.243195,-0.064651,0.050193,-0.819571,1.407564,3.484786,4.680604
404,1.774938,0.032848,-1.243195,-0.052604,0.029314,-0.809933,1.407564,3.610551,4.365891
405,1.779575,0.030415,-1.266432,-0.055013,0.033329,-0.847679,1.533478,3.736466,4.680604
406,1.777257,0.030415,-1.245777,-0.061437,0.031723,-0.815555,1.533478,3.484786,4.554689
407,1.777257,0.030415,-1.245777,-0.064651,0.042162,-0.800295,1.407564,3.170073,4.995317
408,1.786531,0.045014,-1.230285,-0.061437,0.042967,-0.793069,1.407564,3.736466,4.114211
409,1.786531,0.045014,-1.230285,-0.065453,0.034934,-0.827601,1.407564,3.421754,4.428923
410,1.795806,0.027981,-1.240613,-0.048589,0.035738,-0.787447,1.596361,3.610551,4.303008
411,1.795806,0.032848,-1.238031,-0.070273,0.040556,-0.81154,1.722276,3.547668,4.114211
412,1.774938,0.037714,-1.238031,-0.063848,0.038951,-0.817964,1.596361,3.799498,4.680604
413,1.784212,0.035281,-1.235449,-0.054211,0.043769,-0.833224,1.911074,3.673583,4.554689
414,1.784212,0.037714,-1.238031,-0.047784,0.038951,-0.822784,1.281649,3.421754,4.806519
415,1.779575,0.035281,-1.25094,-0.054211,0.043769,-0.826799,1.218766,3.610551,4.303008
416,1.779575,0.035281,-1.25094,-0.062242,0.038147,-0.817964,1.596361,3.736466,4.239976
417,1.770301,0.035281,-1.26385,-0.062242,0.038951,-0.824388,1.785308,4.114211,4.365891
418,1.779575,0.032848,-1.235449,-0.059831,0.039754,-0.812342,1.659393,3.484786,4.491806
419,1.784212,0.037714,-1.258686,-0.053407,0.039754,-0.80672,1.596361,3.610551,4.428923
420,1.786531,0.052313,-1.245777,-0.049391,0.031723,-0.820373,1.344681,3.862381,4.428923
421,1.777257,0.042581,-1.227703,-0.0518,0.034934,-0.826799,1.659393,3.862381,4.239976
422,1.777257,0.042581,-1.227703,-0.061437,0.030116,-0.825995,1.407564,3.799498,4.491806
423,1.765663,0.040147,-1.232867,-0.048589,0.043769,-0.777809,1.722276,3.862381,4.303008
424,1.774938,0.035281,-1.245777,-0.052604,0.034934,-0.821979,1.785308,3.673583,4.617721
425,1.765663,0.045014,-1.230285,-0.045376,0.043769,-0.819571,1.722276,3.673583,4.743636
426,1.772619,0.042581,-1.235449,-0.057422,0.042162,-0.81154,1.029968,3.610551,4.680604
427,1.772619,0.030415,-1.253522,-0.057422,0.029314,-0.809131,1.533478,3.610551,4.743636
428,1.767982,0.032848,-1.25094,-0.055815,0.04136,-0.808326,1.281649,3.547668,4.491806
429,1.767982,0.032848,-1.25094,-0.054211,0.042162,-0.837239,1.659393,3.862381,4.365891
430,1.772619,0.030415,-1.222539,-0.061437,0.04136,-0.817964,1.785308,3.799498,4.114211
431,1.767982,0.037714,-1.217375,-0.048589,0.039754,-0.807524,1.848191,3.925264,4.428923
432,1.767982,0.027981,-1.230285,-0.055013,0.028509,-0.824388,1.533478,3.736466,4.428923
433,1.767982,0.023115,-1.222539,-0.059831,0.049391,-0.827601,1.596361,3.547668,4.806519
434,1.781894,0.032848,-1.230285,-0.053407,0.049391,-0.823586,1.722276,3.736466,4.051179
435,1.781894,0.032848,-1.230285,-0.052604,0.03654,-0.807524,1.533478,3.862381,4.239976
436,1.779575,0.032848,-1.225121,-0.049391,0.031723,-0.801902,1.848191,3.799498,4.743636
437,1.779575,0.054746,-1.230285,-0.055815,0.034132,-0.826799,1.533478,3.421754,4.303008
438,1.777257,0.040147,-1.248359,-0.048589,0.031723,-0.824388,1.281649,3.736466,4.743636
439,1.774938,0.040147,-1.258686,-0.065453,0.049391,-0.800295,1.659393,3.736466,4.239976
440,1.770301,0.035281,-1.248359,-0.048589,0.037345,-0.805115,1.659393,3.610551,4.806519
441,1.774938,0.035281,-1.243195,-0.055815,0.034132,-0.829208,2.100021,3.358871,4.680604
442,1.774938,0.035281,-1.243195,-0.055815,0.04136,-0.808326,1.533478,3.547668,4.428923
443,1.781894,0.037714,-1.266432,-0.059831,0.0518,-0.809933,1.722276,3.673583,4.114211
444,1.781894,0.042581,-1.230285,-0.050195,0.035738,-0.837239,0.966936,3.799498,4.428923
445,1.779575,0.04988,-1.225121,-0.06706,0.033329,-0.823586,1.281649,3.610551,4.177094
446,1.781894,0.035281,-1.238031,-0.055013,0.055013,-0.817162,1.596361,4.051179,4.806519
447,1.781894,0.035281,-1.214794,-0.058226,0.040556,-0.812342,1.533478,3.673583,4.554689
448,1.781894,0.035281,-1.214794,-0.0518,0.035738,-0.822784,1.722276,3.736466,4.428923
449,1.777257,0.032848,-1.219957,-0.066257,0.0518,-0.813948,1.533478,3.862381,4.995317
450,1.777257,0.037714,-1.230285,-0.055815,0.045376,-0.828404,1.470596,3.673583,4.428923
451,1.763345,0.035281,-1.214794,-0.045376,0.04136,-0.791462,1.470596,3.295839,4.239976
452,1.779575,0.025548,-1.243195,-0.058226,0.046982,-0.802704,1.281649,3.925264,4.743636
453,1.774938,0.030415,-1.258686,-0.050195,0.046178,-0.829208,1.155883,3.358871,4.491806
454,1.779575,0.037714,-1.222539,-0.055815,0.043769,-0.797887,1.533478,3.421754,4.365891
455,1.779575,0.037714,-1.222539,-0.052604,0.037345,-0.826799,1.785308,3.547668,4.365891
456,1.781894,0.032848,-1.227703,-0.059029,0.0518,-0.80672,1.533478,3.547668,4.239976
457,1.774938,0.037714,-1.219957,-0.058226,0.037345,-0.816357,1.407564,3.925264,4.239976
458,1.763345,0.040147,-1.217375,-0.054211,0.047784,-0.79628,1.533478,3.358871,4.428923
459,1.774938,0.042581,-1.222539,-0.053407,0.030918,-0.820373,1.155883,3.736466,4.114211
460,1.784212,0.032848,-1.240613,-0.061437,0.034934,-0.817964,1.722276,3.862381,4.239976
461,1.784212,0.032848,-1.240613,-0.064651,0.059029,-0.812342,1.344681,3.925264,4.365891
462,1.772619,0.023115,-1.222539,-0.059831,0.045376,-0.805918,1.785308,3.799498,4.428923
463,1.777257,0.040147,-1.212212,-0.055013,0.038147,-0.805918,1.407564,3.610551,4.743636
464,1.774938,0.025548,-1.225121,-0.042164,0.022085,-0.829208,1.659393,3.610551,4.428923
465,1.779575,0.032848,-1.240613,-0.061437,0.04136,-0.809933,1.659393,3.736466,4.617721
466,1.777257,0.045014,-1.243195,-0.066257,0.039754,-0.795478,1.218766,3.862381,4.365891
467,1.784212,0.040147,-1.238031,-0.061437,0.045376,-0.819571,1.659393,3.484786,4.932433
468,1.784212,0.040147,-1.238031,-0.050195,0.038951,-0.813948,1.470596,3.736466,4.428923
469,1.772619,0.037714,-1.217375,-0.059029,0.045376,-0.817964,1.596361,3.484786,4.617721
470,1.779575,0.040147,-1.230285,-0.05662,0.033329,-0.809933,1.596361,3.736466,4.554689
471,1.777257,0.047447,-1.243195,-0.059029,0.037345,-0.802704,1.848191,3.736466,4.303008
472,1.774938,0.040147,-1.232867,-0.06706,0.04136,-0.817964,1.722276,3.799498,4.365891
473,1.774938,0.032848,-1.232867,-0.050195,0.028509,-0.834026,1.596361,3.610551,4.051179
474,1.774938,0.030415,-1.230285,-0.058226,0.037345,-0.839648,1.722276,3.673583,4.303008
475,1.774938,0.030415,-1.230285,-0.055815,0.044571,-0.822784,1.722276,3.673583,4.806519
476,1.770301,0.025548,-1.230285,-0.048589,0.04136,-0.813948,1.848191,3.673583,4.365891
477,1.765663,0.027981,-1.238031,-0.057422,0.033329,-0.808326,1.470596,3.610551,4.554689
478,1.758707,0.030415,-1.243195,-0.055815,0.037345,-0.824388,1.470596,3.547668,4.114211
479,1.763345,0.035281,-1.245777,-0.052604,0.030116,-0.826799,1.407564,3.736466,4.303008
480,1.761026,0.023115,-1.235449,-0.059029,0.046178,-0.81154,1.407564,3.547668,4.303008
481,1.761026,0.023115,-1.235449,-0.055815,0.042967,-0.810735,1.722276,3.547668,4.365891
482,1.767982,0.020682,-1.238031,-0.068666,0.044571,-0.829208,1.659393,4.177094,4.365891
483,1.763345,0.037714,-1.243195,-0.055013,0.044571,-0.79628,1.533478,3.610551,4.239976
484,1.781894,0.030415,-1.219957,-0.057422,0.040556,-0.829208,1.092851,3.358871,4.428923
485,1.779575,0.030415,-1.232867,-0.0518,0.038951,-0.838041,1.785308,3.547668,4.680604
486,1.772619,0.037714,-1.212212,-0.026101,0.022085,-1.026772,1.407564,1.407564,3.044158
487,1.774938,0.030415,-1.235449,-0.045376,0.021283,-0.969751,3.988296,4.114211,2.036989
488,1.774938,0.030415,-1.235449,-0.053407,0.060633,-0.870969,1.155883,4.491806,0.274628
489,1.781894,0.030415,-1.214794,-0.061437,0.019676,-0.8011,0.337511,4.177094,-0.480711
490,1.777257,0.040147,-1.230285,-0.047784,0.046178,-0.826799,0.211596,4.051179,-1.991391
491,1.770301,0.027981,-1.248359,-0.083926,0.00763,-0.83001,3.925264,6.128401,1.533478
492,1.770301,0.040147,-1.232867,-0.053407,0.045376,-0.810735,0.652224,2.981126,3.358871
493,1.772619,0.037714,-1.230285,-0.055815,0.034132,-0.829208,1.596361,4.806519,3.358871
494,1.772619,0.037714,-1.230285,-0.048589,0.034934,-0.828404,1.092851,4.932433,4.428923
495,1.767982,0.042581,-1.245777,-0.076697,0.046982,-0.80672,-0.291914,2.100021,4.239976
496,1.770301,0.047447,-1.227703,-0.044573,0.037345,-0.799493,0.526309,2.729446,4.617721
497,1.772619,0.04988,-1.232867,-0.064651,0.033329,-0.809131,1.911074,3.988296,4.239976
498,1.772619,0.037714,-1.186392,-0.062242,0.047784,-0.833224,1.596361,3.925264,4.365891
499,1.770301,0.037714,-1.256104,-0.045376,0.019676,-0.815555,1.344681,3.358871,4.428923
500,1.781894,0.052313,-1.219957,-0.048589,0.042162,-0.831617,1.407564,3.547668,4.869551
501,1.781894,0.052313,-1.219957,-0.055815,0.040556,-0.825193,1.470596,3.925264,4.554689
502,1.781894,0.042581,-1.235449,-0.06706,0.042162,-0.830815,1.533478,3.925264,4.428923
503,1.770301,0.047447,-1.212212,-0.052604,0.046178,-0.821177,1.596361,3.547668,4.617721
504,1.774938,0.032848,-1.214794,-0.063044,0.038147,-0.797887,1.659393,3.673583,4.303008
505,1.777257,0.037714,-1.214794,-0.055013,0.044571,-0.812342,1.407564,3.673583,4.617721
506,1.772619,0.037714,-1.232867,-0.052604,0.037345,-0.83001,1.848191,4.114211,4.554689
507,1.772619,0.037714,-1.232867,-0.05662,0.044571,-0.826799,1.155883,3.673583,4.177094
508,1.777257,0.030415,-1.214794,-0.060635,0.044571,-0.808326,1.785308,3.232956,4.806519
509,1.770301,0.047447,-1.20963,-0.059831,0.038951,-0.805115,1.344681,3.421754,4.303008
510,1.770301,0.042581,-1.214794,-0.063044,0.030116,-0.827601,1.092851,3.484786,4.869551
511,1.770301,0.040147,-1.235449,-0.061437,0.042162,-0.820373,1.596361,3.736466,4.177094
512,1.763345,0.042581,-1.232867,-0.049391,0.047784,-0.81154,1.344681,3.925264,3.610551
513,1.767982,0.035281,-1.232867,-0.061437,0.038951,-0.798689,1.407564,3.799498,1.659393
514,1.767982,0.035281,-1.232867,-0.060635,0.03654,-0.809131,1.596361,3.862381,2.477616
515,1.767982,0.030415,-1.222539,-0.050998,0.037345,-0.819571,1.659393,3.925264,0.274628
516,1.767982,0.042581,-1.225121,-0.055013,0.030918,-0.80672,1.407564,4.114211,-2.683699
517,1.767982,0.047447,-1.227703,-0.062242,0.040556,-0.801902,1.407564,4.114211,-6.649196
518,1.772619,0.035281,-1.227703,-0.047784,0.031723,-0.824388,1.596361,3.421754,-10.740459
519,1.758707,0.040147,-1.219957,-0.044573,0.033329,-0.820373,1.911074,3.988296,-14.957636
520,1.758707,0.040147,-1.219957,-0.0518,0.042967,-0.832419,1.722276,4.177094,-13.384074
521,1.761026,0.062046,-1.214794,-0.048589,0.039754,-0.832419,0.966936,4.239976,-12.188255
522,1.784212,0.054746,-1.238031,-0.045376,0.046178,-0.826799,1.218766,3.547668,-11.244118
523,1.765663,0.047447,-1.204466,-0.052604,0.037345,-0.816357,1.785308,4.051179,-10.614544
524,1.765663,0.045014,-1.207048,-0.050998,0.046178,-0.803509,2.036989,3.862381,-10.425747
525,1.781894,0.045014,-1.227703,-0.05662,0.046982,-0.813146,1.911074,4.491806,-8.789301
526,1.772619,0.054746,-1.20963,-0.05662,0.043769,-0.832419,1.596361,4.114211,-6.523281
527,1.772619,0.054746,-1.20963,-0.073484,0.046178,-0.827601,1.533478,3.484786,-2.306104
528,1.772619,0.042581,-1.232867,-0.046982,0.047784,-0.83001,1.596361,3.799498,0.022799
529,1.765663,0.062046,-1.212212,-0.05662,0.039754,-0.827601,1.785308,3.988296,-1.110137
530,1.770301,0.052313,-1.227703,-0.04618,0.022085,-0.809933,1.533478,3.736466,-4.005581
531,1.770301,0.054746,-1.217375,-0.055013,0.033329,-0.823586,1.029968,3.044158,-10.488778
532,1.777257,0.059613,-1.227703,-0.045376,0.016463,-0.799493,1.911074,4.554689,-18.608421
533,1.765663,0.054746,-1.20963,-0.057422,0.038147,-0.813146,1.911074,4.554689,-28.301775
534,1.765663,0.054746,-1.20963,-0.072682,0.021283,-0.846877,1.848191,4.177094,-35.351364
535,1.779575,0.069346,-1.207048,-0.052604,0.030116,-0.812342,1.281649,4.428923,-35.980789
536,1.78885,0.074212,-1.204466,-0.043769,0.054209,-0.810735,2.477616,4.303008,-37.869064
537,1.779575,0.081511,-1.201884,-0.057422,0.024494,-0.788249,1.911074,4.491806,-36.610214
538,1.793487,0.081511,-1.191556,-0.060635,0.046178,-0.795478,2.540499,4.617721,-34.721939
539,1.791168,0.088811,-1.235449,-0.0518,0.069468,-0.829208,2.225786,4.932433,-26.098639
540,1.791168,0.088811,-1.235449,-0.049391,0.046982,-0.815555,1.092851,4.428923,-21.818579
541,1.772619,0.083944,-1.194138,-0.068666,0.028509,-0.809933,0.715256,3.988296,-22.322088
542,1.786531,0.093677,-1.204466,-0.055013,0.054209,-0.803509,1.092851,4.303008,-22.384972
543,1.770301,0.083944,-1.214794,-0.092759,0.056618,-0.838846,2.162904,5.184263,-21.189154
544,1.777257,0.098543,-1.222539,-0.069468,0.04136,-0.826799,2.981126,6.191283,-19.867271
545,1.781894,0.105843,-1.207048,-0.040558,0.037345,-0.842057,1.407564,3.925264,-22.8256
546,1.772619,0.105843,-1.207048,-0.046982,0.026101,-0.79628,0.778139,2.729446,-24.650991
547,1.772619,0.105843,-1.207048,-0.031723,0.013252,-0.813146,1.659393,5.121231,-26.476383
548,1.784212,0.108276,-1.217375,-0.059029,0.058224,-0.819571,2.918243,5.435944,-27.042925
549,1.781894,0.120442,-1.20963,-0.077499,0.048587,-0.817162,1.470596,4.051179,-25.028736
550,1.779575,0.122875,-1.204466,-0.058226,0.030918,-0.814753,1.344681,3.799498,-25.658161
551,1.781894,0.127741,-1.219957,-0.058226,0.038147,-0.821177,2.036989,4.932433,-29.308796
552,1.777257,0.122875,-1.222539,-0.0518,0.021283,-0.817162,2.036989,5.310029,-31.322989
553,1.777257,0.122875,-1.222539,-0.052604,0.019676,-0.854103,1.722276,4.239976,-32.581837
554,1.779575,0.125308,-1.214794,-0.067864,0.038951,-0.809933,2.100021,4.617721,-35.162567
555,1.781894,0.127741,-1.214794,-0.063848,0.045376,-0.853301,1.407564,4.428923,-37.302673
556,1.779575,0.144774,-1.204466,-0.059029,0.034132,-0.817162,1.785308,4.303008,-38.372726
557,1.779575,0.14964,-1.191556,-0.034132,0.021283,-0.817162,2.351701,5.624742,-37.113876
558,1.777257,0.152073,-1.188974,-0.075895,0.040556,-0.798689,2.414733,5.876571,-39.946289
559,1.786531,0.164239,-1.212212,-0.058226,0.046178,-0.827601,1.155883,4.051179,-42.778702
560,1.786531,0.164239,-1.212212,-0.071879,0.026101,-0.818768,1.848191,4.428923,-46.24054
561,1.774938,0.161806,-1.207048,-0.08553,0.005219,-0.813146,2.414733,5.310029,-49.010067
562,1.781894,0.169105,-1.181229,-0.062242,0.018872,-0.802704,1.344681,4.428923,-53.101482
563,1.784212,0.178838,-1.168319,-0.048589,0.044571,-0.809933,0.904053,3.107041,-53.353161
564,1.779575,0.181271,-1.20963,-0.042164,0.042967,-0.81154,2.225786,4.869551,-53.730904
565,1.786531,0.191004,-1.19672,-0.036542,0.032525,-0.805918,2.351701,5.750656,-53.730904
566,1.786531,0.191004,-1.19672,-0.052604,0.030116,-0.791462,1.911074,4.743636,-53.290279
567,1.777257,0.191004,-1.191556,-0.025298,0.044571,-0.813948,1.911074,4.932433,-55.682064
568,1.767982,0.188571,-1.178647,-0.08553,0.046982,-0.819571,2.414733,4.554689,-50.457867
569,1.770301,0.212902,-1.191556,-0.008432,0.029314,-0.873378,2.729446,4.428923,-46.429485
570,1.774938,0.220202,-1.204466,-0.030116,0.033329,-0.833224,2.288818,4.428923,-40.890427
571,1.779575,0.222635,-1.173483,-0.047784,0.013252,-0.777005,1.785308,4.932433,-39.44278
572,1.772619,0.229935,-1.168319,-0.052604,0.050193,-0.773794,1.974106,4.491806,-36.547333
573,1.772619,0.229935,-1.168319,-0.059831,0.022085,-0.810735,2.414733,5.121231,-36.421417
574,1.784212,0.237234,-1.170901,-0.048589,0.040556,-0.827601,2.100021,4.806519,-38.939117
575,1.781894,0.237234,-1.186392,-0.071075,0.061437,-0.780218,2.351701,5.184263,-38.246811
576,1.779575,0.237234,-1.188974,-0.059831,0.014856,-0.819571,2.162904,4.680604,-38.435608
577,1.765663,0.234801,-1.191556,-0.083121,0.037345,-0.813948,1.344681,3.673583,-43.848755
578,1.761026,0.242101,-1.165737,-0.059029,0.074286,-0.790658,1.470596,3.925264,-45.485348
579,1.767982,0.2494,-1.165737,-0.064651,0.043769,-0.821177,2.918243,6.128401,-47.436504
580,1.767982,0.2494,-1.165737,-0.075895,0.026903,-0.783431,2.100021,5.750656,-45.422318
581,1.761026,0.256699,-1.173483,-0.048589,0.040556,-0.802704,1.218766,4.869551,-42.715816
582,1.75407,0.256699,-1.181229,-0.050998,0.032525,-0.791462,2.540499,6.88374,-42.275192
583,1.756389,0.261566,-1.19672,-0.06706,0.047784,-0.790658,1.596361,4.491806,-36.484303
584,1.758707,0.271299,-1.191556,-0.042967,0.046982,-0.804311,0.400543,3.421754,-32.267124
585,1.758707,0.266432,-1.201884,-0.037345,0.038951,-0.840452,2.100021,5.184263,-31.574818
586,1.758707,0.266432,-1.201884,-0.079106,0.038147,-0.835632,2.100021,4.177094,-28.9312
587,1.761026,0.271299,-1.186392,-0.060635,0.047784,-0.848483,1.533478,3.232956,-26.287586
588,1.749432,0.285898,-1.214794,-0.058226,0.027707,-0.821177,2.225786,5.247146,-25.280416
589,1.751751,0.290764,-1.18381,-0.082319,0.03654,-0.817162,1.848191,5.750656,-27.92403
590,1.742477,0.29563,-1.186392,-0.049391,0.022085,-0.825995,1.533478,4.617721,-30.882359
591,1.742477,0.293197,-1.181229,-0.071075,0.037345,-0.817162,1.596361,3.925264,-37.428589
592,1.749432,0.300496,-1.170901,-0.087941,0.043769,-0.817964,1.848191,4.428923,-40.135086
593,1.749432,0.300496,-1.170901,-0.049391,0.034132,-0.817964,2.351701,5.876571,-38.687439
594,1.749432,0.298063,-1.181229,-0.052604,0.015661,-0.816357,1.344681,4.806519,-37.554352
595,1.735521,0.305363,-1.160573,-0.08553,0.053407,-0.813948,-1.550764,-0.291914,-30.630676
596,1.733202,0.312662,-1.170901,-0.042967,0.026903,-0.862136,1.785308,3.988296,-25.721043
597,1.742477,0.317529,-1.163155,-0.068666,0.038147,-0.799493,2.036989,5.813688,-20.307899
598,1.735521,0.329695,-1.181229,-0.07509,0.04136,-0.818768,0.652224,2.918243,-21.126122
599,1.735521,0.329695,-1.181229,-0.05662,0.048587,-0.813146,1.722276,4.554689,-26.413351
600,1.744795,0.317529,-1.1425,-0.058226,0.042967,-0.834026,1.533478,5.058348,-30.127018
601,1.733202,0.327261,-1.168319,-0.060635,0.030918,-0.837239,1.218766,4.303008,-30.945391
602,1.730883,0.336994,-1.178647,-0.048589,0.022887,-0.83001,2.729446,6.380081,-30.630676
603,1.737839,0.332128,-1.19672,-0.062242,0.046982,-0.821177,1.848191,4.617721,-30.001255
604,1.733202,0.329695,-1.181229,-0.061437,0.029314,-0.81154,0.589341,4.239976,-29.182882
605,1.721609,0.339427,-1.178647,-0.06706,0.028509,-0.785036,0.526309,3.295839,-27.483404
606,1.721609,0.339427,-1.178647,-0.063044,0.032525,-0.830815,3.358871,5.121231,-22.88863
607,1.721609,0.358893,-1.165737,-0.063044,0.046178,-0.849285,1.848191,3.170073,-17.538368
608,1.726246,0.346727,-1.157991,-0.060635,0.039754,-0.842861,2.414733,5.247146,-14.265328
609,1.71929,0.341861,-1.168319,-0.052604,0.038147,-0.822784,1.218766,3.295839,-13.132393
610,1.723927,0.356459,-1.165737,-0.055815,0.021283,-0.832419,1.218766,3.736466,-17.727167
611,1.723927,0.358893,-1.163155,-0.055013,0.032525,-0.809131,1.785308,4.932433,-23.266226
612,1.723927,0.358893,-1.163155,-0.044573,0.034934,-0.819571,1.533478,4.869551,-26.224554
613,1.714653,0.368625,-1.173483,-0.047784,0.031723,-0.809933,1.596361,4.995317,-29.245914
614,1.714653,0.351593,-1.186392,-0.044573,0.027707,-0.816357,1.722276,4.806519,-34.721939
615,1.721609,0.351593,-1.170901,-0.04136,0.027707,-0.838846,1.848191,5.247146,-41.393936
616,1.710015,0.34916,-1.176065,-0.093563,0.015661,-0.759337,0.400543,3.736466,-47.121792
617,1.703059,0.361326,-1.19672,-0.01807,0.022085,-0.783431,1.911074,6.128401,-51.464886
618,1.710015,0.371059,-1.186392,-0.072682,0.0518,-0.809131,2.477616,6.317198,-50.457867
619,1.710015,0.371059,-1.186392,-0.081515,0.028509,-0.852499,1.659393,3.421754,-49.639492
620,1.700741,0.378358,-1.191556,-0.03092,0.008432,-0.805115,3.358871,7.638931,-52.849651
621,1.703059,0.373492,-1.168319,-0.044573,0.022085,-0.822784,2.729446,6.946623,-54.549129
622,1.705378,0.388091,-1.181229,-0.070273,0.055815,-0.810735,0.274628,3.736466,-53.982586
623,1.703059,0.40269,-1.168319,-0.05662,0.045376,-0.817964,0.652224,3.107041,-50.961376
624,1.68451,0.397823,-1.186392,-0.068666,0.042967,-0.805115,2.351701,5.498976,-47.499538
625,1.68451,0.397823,-1.186392,-0.044573,0.023692,-0.820373,2.918243,6.443113,-45.04472
626,1.686829,0.412422,-1.173483,-0.052604,0.046178,-0.833224,1.596361,4.554689,-41.834564
627,1.682191,0.409989,-1.168319,-0.028511,0.044571,-0.795478,0.526309,3.736466,-40.386917
628,1.675235,0.417289,-1.178647,-0.059831,-0.002008,-0.809131,0.589341,3.295839,-43.911636
629,1.672917,0.424588,-1.191556,-0.071075,0.052602,-0.78102,1.722276,5.121231,-46.618282
630,1.665961,0.424588,-1.178647,-0.061437,0.035738,-0.828404,3.421754,7.513165,-47.499538
631,1.659005,0.434321,-1.19672,-0.074288,0.055815,-0.77299,0.966936,4.239976,-47.814251
632,1.659005,0.434321,-1.19672,-0.038149,0.026101,-0.813146,1.029968,4.177094,-46.932995
633,1.656686,0.431888,-1.173483,-0.023692,0.045376,-0.830815,2.981126,4.932433,-45.674145
634,1.656686,0.441621,-1.194138,-0.061437,0.038147,-0.857316,1.092851,3.044158,-42.086391
635,1.663642,0.446487,-1.191556,-0.050998,0.030116,-0.835632,1.911074,4.617721,-39.883255
636,1.633499,0.444054,-1.20963,-0.063044,0.030918,-0.822784,3.610551,6.065369,-40.890427
637,1.628862,0.446487,-1.181229,-0.050998,0.038147,-0.817162,1.722276,4.806519,-47.05891
638,1.628862,0.446487,-1.181229,-0.059029,0.039754,-0.797084,1.407564,5.310029,-48.632473
639,1.626543,0.453786,-1.199302,-0.055013,0.030918,-0.817964,2.162904,5.750656,-49.32478
640,1.635818,0.458653,-1.188974,-0.053407,0.00763,-0.798689,1.533478,5.373061,-50.961376
641,1.628862,0.458653,-1.168319,-0.050998,0.023692,-0.816357,1.785308,3.862381,-50.331951
642,1.619587,0.463519,-1.19672,-0.055013,0.0518,-0.78102,0.904053,4.303008,-41.897446
643,1.61495,0.470819,-1.181229,-0.047784,0.031723,-0.797887,2.603531,5.121231,-33.966602
644,1.603357,0.470819,-1.19672,-0.081515,0.046178,-0.859725,1.785308,4.303008,-30.064137
645,1.603357,0.470819,-1.19672,-0.048589,0.0518,-0.789053,1.155883,2.792329,-17.916113
646,1.612631,0.475685,-1.201884,-0.059029,0.048587,-0.821979,1.533478,3.799498,-4.383177
647,1.612631,0.468385,-1.20963,-0.055013,0.027707,-0.848483,1.281649,3.610551,1.848191
648,1.612631,0.478118,-1.212212,-0.049391,0.025298,-0.832419,1.848191,4.051179,-0.480711
649,1.603357,0.468385,-1.212212,-0.05662,0.030918,-0.812342,1.092851,3.673583,-6.775111
650,1.607994,0.473252,-1.188974,-0.063044,0.035738,-0.820373,1.596361,3.736466,-11.307001
651,1.610313,0.473252,-1.214794,-0.043769,0.019676,-0.800295,2.036989,5.058348,-16.971975
652,1.610313,0.473252,-1.214794,-0.059831,0.03654,-0.827601,1.911074,4.365891,-18.608421
653,1.605675,0.480551,-1.199302,-0.050998,0.03654,-0.816357,1.848191,4.428923,-16.971975
654,1.607994,0.482984,-1.18381,-0.050998,0.03654,-0.800295,1.092851,3.799498,-17.160774
655,1.605675,0.478118,-1.18381,-0.055013,0.031723,-0.79628,1.470596,4.177094,-19.804388
656,1.589445,0.490284,-1.19672,-0.063848,0.025298,-0.81154,1.911074,4.365891,-24.273396
657,1.589445,0.490284,-1.204466,-0.057422,0.01807,-0.843663,1.344681,3.610551,-24.839788
658,1.589445,0.490284,-1.204466,-0.036542,0.022085,-0.837239,2.100021,5.498976,-22.573917
659,1.582489,0.480551,-1.227703,-0.060635,0.047784,-0.807524,1.596361,3.547668,-18.419624
660,1.584807,0.490284,-1.194138,-0.03092,0.024494,-0.816357,1.407564,4.743636,-13.824701
661,1.589445,0.485418,-1.20963,-0.054211,0.020479,-0.812342,1.848191,5.435944,-16.405434
662,1.589445,0.480551,-1.201884,-0.063848,0.026903,-0.833224,3.044158,6.128401,-24.08445
663,1.582489,0.492717,-1.214794,-0.026905,-0.002008,-0.815555,3.421754,5.939454,-34.21843
664,1.58017,0.49515,-1.194138,-0.00763,-0.032527,-0.777809,2.603531,5.184263,-49.387814
665,1.58017,0.49515,-1.194138,-0.098381,0.055013,-0.73685,2.855361,8.142591,-61.598869
666,1.58017,0.500016,-1.201884,-0.028511,0.047784,-0.8011,3.610551,8.268356,-73.809921
667,1.563939,0.509749,-1.19672,-0.012449,0.017267,-0.826799,2.666414,5.624742,-86.083862
668,1.575533,0.500016,-1.219957,-0.050998,0.042162,-0.824388,1.470596,5.561858,-86.398575
669,1.550027,0.519482,-1.191556,-0.030116,0.042162,-0.791462,0.904053,3.862381,-84.887894
670,1.536115,0.519482,-1.18381,-0.050998,0.008432,-0.779416,1.911074,5.750656,-74.124634
671,1.536115,0.519482,-1.18381,-0.064651,0.081515,-0.833224,1.659393,4.743636,-63.235313
672,1.517566,0.517049,-1.194138,-0.052604,0.061437,-0.815555,2.981126,6.065369,-45.73703
673,1.51061,0.521915,-1.194138,-0.04618,0.033329,-0.819571,1.218766,4.932433,-33.274292
674,1.508291,0.531648,-1.191556,-0.036542,0.016463,-0.808326,1.029968,4.051179,-27.042925
675,1.503654,0.524348,-1.230285,-0.071879,0.035738,-0.809933,2.036989,5.373061,-26.791096
676,1.499017,0.531648,-1.238031,-0.059831,0.044571,-0.846072,2.414733,4.869551,-27.92403
677,1.496698,0.531648,-1.194138,-0.058226,0.014054,-0.786642,1.596361,5.687773,-32.896549
678,1.496698,0.531648,-1.194138,-0.036542,0.025298,-0.818768,1.659393,4.869551,-44.100582
679,1.487424,0.536514,-1.227703,-0.072682,0.029314,-0.768974,1.470596,4.995317,-53.542107
680,1.489742,0.531648,-1.227703,-0.0518,0.015661,-0.822784,1.533478,4.869551,-55.996777
681,1.492061,0.534081,-1.214794,-0.075895,0.030116,-0.818768,0.589341,2.792329,-57.318653
682,1.480468,0.538947,-1.222539,-0.033329,0.012448,-0.854907,1.911074,4.491806,-59.962273
683,1.478149,0.546247,-1.20963,-0.059029,0.011645,-0.78584,1.407564,5.121231,-59.458763
684,1.478149,0.546247,-1.20963,-0.046982,0.043769,-0.84527,2.288818,4.743636,-52.346142
685,1.459599,0.531648,-1.207048,-0.047784,0.013252,-0.819571,2.981126,6.694794,-55.556297
686,1.461918,0.538947,-1.214794,-0.065453,0.039754,-0.810735,2.666414,6.380081,-62.920597
687,1.457281,0.541381,-1.214794,-0.067864,0.020479,-0.803509,4.428923,7.89076,-68.963173
688,1.448006,0.538947,-1.230285,-0.068666,0.026101,-0.793871,3.862381,8.520185,-72.236214
689,1.436413,0.543814,-1.212212,-0.016465,0.034934,-0.821979,3.170073,6.317198,-73.684006
690,1.420182,0.541381,-1.230285,-0.042967,0.014054,-0.854907,2.100021,4.554689,-79.852493
691,1.420182,0.541381,-1.230285,-0.063044,0.030116,-0.801902,2.414733,6.694794,-83.817841
692,1.417863,0.543814,-1.219957,-0.066257,0.047784,-0.832419,3.170073,5.498976,-80.104172
693,1.410908,0.543814,-1.217375,-0.050195,0.028509,-0.794673,2.540499,8.205473,-71.229187
694,1.403952,0.551113,-1.230285,-0.089548,0.116049,-0.842057,3.295839,8.142591,-67.326721
695,1.399314,0.551113,-1.222539,-0.071075,0.0518,-0.822784,3.799498,7.072538,-58.829334
696,1.378446,0.54868,-1.222539,-0.057422,0.011645,-0.807524,2.855361,6.128401,-54.737926
697,1.376127,0.551113,-1.201884,-0.047784,0.042967,-0.827601,1.029968,4.177094,-49.261898
698,1.376127,0.551113,-1.201884,-0.05662,0.04136,-0.846877,1.533478,4.114211,-46.681168
699,1.376127,0.54868,-1.240613,-0.087941,0.061437,-0.815555,1.911074,4.995317,-47.373623
700,1.364534,0.555979,-1.227703,-0.057422,0.032525,-0.810735,1.974106,4.995317,-47.940018
701,1.357578,0.543814,-1.25094,-0.050998,0.026903,-0.825193,0.778139,3.988296,-50.206036
702,1.352941,0.538947,-1.219957,-0.039754,0.055815,-0.846072,1.281649,5.373061,-54.737926
703,1.33671,0.551113,-1.238031,0.09597,0.055815,-0.895866,0.274628,3.925264,-54.61216
704,1.33671,0.551113,-1.238031,-0.06706,0.034934,-0.785036,4.617721,12.107939,-52.346142
705,1.334391,0.553546,-1.238031,-0.048589,0.00763,-0.864545,1.029968,3.295839,-56.059807
706,1.334391,0.546247,-1.256104,-0.050998,0.034934,-0.843663,1.092851,3.799498,-63.990658
707,1.318161,0.546247,-1.248359,-0.045376,0.000401,-0.810735,2.477616,6.065369,-68.837257
708,1.308886,0.541381,-1.258686,-0.095168,0.018872,-0.856514,1.974106,3.358871,-73.117462
709,1.304249,0.555979,-1.243195,-0.06706,0.027707,-0.869363,3.925264,7.576048,-78.719406
710,1.288018,0.538947,-1.248359,-0.017267,-0.006827,-0.818768,2.792329,6.694794,-85.517319
711,1.288018,0.538947,-1.248359,-0.03092,0.00281,-0.748094,1.785308,7.953643,-92.755852
712,1.281062,0.563279,-1.248359,-0.030116,0.037345,-0.849285,2.855361,4.995317,-94.203499
713,1.26715,0.551113,-1.253522,-0.03092,0.046982,-0.854907,2.036989,3.421754,-88.160934
714,1.253238,0.551113,-1.26385,-0.089548,-0.002812,-0.764156,2.225786,7.701964,-88.223961
715,1.246282,0.54868,-1.256104,-0.235711,0.116852,-0.798689,1.344681,4.051179,-86.964966
716,1.225414,0.546247,-1.243195,-0.009236,-0.023692,-0.802704,7.387251,14.499874,-83.880875
717,1.225414,0.546247,-1.243195,-0.037345,0.029314,-0.813948,-0.732541,2.918243,-88.035019
718,1.223096,0.543814,-1.232867,-0.083121,0.093561,-0.825193,1.596361,4.491806,-76.012909
719,1.206865,0.534081,-1.240613,-0.042164,0.034934,-0.850892,2.540499,5.435944,-67.956146
720,1.202228,0.541381,-1.289669,-0.07509,0.034132,-0.805918,1.659393,5.184263,-59.710442
721,1.19759,0.546247,-1.227703,-0.061437,0.049391,-0.825995,2.540499,4.303008,-55.304466
722,1.185997,0.534081,-1.245777,-0.054211,0.024494,-0.81154,1.848191,4.932433,-50.961376
723,1.176722,0.536514,-1.25094,-0.048589,0.029314,-0.825995,1.911074,4.680604,-46.99588
724,1.176722,0.536514,-1.25094,-0.074288,0.022085,-0.838846,1.218766,3.862381,-45.170635
725,1.172085,0.531648,-1.256104,-0.064651,0.039754,-0.832419,1.785308,4.680604,-42.904617
726,1.167448,0.531648,-1.261268,-0.054211,0.03654,-0.803509,1.533478,4.869551,-42.967499
727,1.155855,0.534081,-1.240613,-0.064651,0.043769,-0.820373,1.848191,5.121231,-47.184826
728,1.137305,0.524348,-1.256104,-0.05662,0.001204,-0.814753,2.036989,5.561858,-48.569592
729,1.130349,0.531648,-1.235449,-0.063044,0.026101,-0.798689,1.659393,4.239976,-48.128963
730,1.130349,0.531648,-1.235449,-0.074288,0.030116,-0.813948,1.470596,4.743636,-48.947186
731,1.134986,0.524348,-1.27676,-0.049391,0.028509,-0.798689,2.414733,6.254167,-52.534939
732,1.137305,0.534081,-1.266432,-0.065453,-0.022085,-0.794673,2.540499,7.513165,-60.654732
733,1.123393,0.529215,-1.256104,-0.065453,-0.004417,-0.7754,2.666414,6.002486,-75.005737
734,1.121074,0.517049,-1.302579,-0.046982,0.013252,-0.759337,2.981126,7.953643,-82.55899
735,1.107162,0.519482,-1.27676,-0.095168,0.000401,-0.773794,2.792329,6.569028,-87.972137
736,1.104844,0.517049,-1.302579,-0.096774,0.043769,-0.838041,3.107041,4.554689,-91.559891
737,1.104844,0.517049,-1.302579,-0.063044,0.018872,-0.819571,3.107041,7.638931,-90.238152
738,1.095569,0.50245,-1.27676,-0.043769,0.072682,-0.800295,2.792329,6.128401,-80.481918
739,1.081657,0.497583,-1.310325,-0.034936,0.101592,-0.813948,2.792329,7.513165,-68.837257
740,1.088613,0.492717,-1.294833,-0.050998,0.046982,-0.793069,1.848191,6.128401,-56.689232
741,1.070064,0.490284,-1.294833,-0.046982,0.089546,-0.790658,0.841171,3.988296,-44.666977
742,1.065427,0.485418,-1.281924,-0.072682,0.033329,-0.834026,1.344681,3.295839,-31.826496
743,1.065427,0.485418,-1.281924,-0.059029,0.010841,-0.802704,1.722276,4.554689,-24.650991
744,1.060789,0.492717,-1.305161,-0.022889,0.020479,-0.813948,1.596361,4.680604,-23.769737
745,1.053833,0.485418,-1.292251,-0.064651,0.026101,-0.789053,1.218766,4.365891,-24.336279
746,1.053833,0.475685,-1.312907,-0.031723,0.010841,-0.813948,1.533478,4.491806,-27.546436
747,1.049196,0.492717,-1.279342,-0.052604,0.028509,-0.807524,2.225786,4.743636,-32.959579
748,1.04224,0.487851,-1.297415,-0.042967,0.014856,-0.802704,2.351701,5.121231,-37.428589
749,1.039921,0.492717,-1.299997,-0.050998,0.045376,-0.84527,2.477616,5.561858,-37.49147
750,1.039921,0.492717,-1.299997,-0.050195,0.027707,-0.818768,1.407564,4.806519,-34.21843
751,1.035284,0.465952,-1.310325,-0.076697,0.046178,-0.824388,1.596361,3.295839,-34.029633
752,1.030647,0.470819,-1.297415,-0.042164,0.032525,-0.825995,3.170073,6.631911,-26.853979
753,1.023691,0.475685,-1.292251,-0.038951,0.031723,-0.802704,1.092851,4.051179,-26.350468
754,1.014416,0.470819,-1.305161,-0.040558,0.025298,-0.789053,1.533478,4.177094,-27.294605
755,1.000504,0.478118,-1.281924,-0.054211,0.034934,-0.858119,1.218766,3.988296,-30.127018
756,1.021372,0.470819,-1.279342,-0.063848,0.00281,-0.821979,1.470596,3.484786,-32.455921
757,1.021372,0.470819,-1.279342,-0.05662,0.022887,-0.839648,2.100021,3.547668,-34.155399
758,1.026009,0.463519,-1.312907,-0.064651,0.029314,-0.843663,2.540499,5.058348,-36.358536
759,1.005141,0.468385,-1.299997,-0.065453,0.011645,-0.84527,1.344681,3.421754,-40.953308
760,1.00746,0.456219,-1.312907,-0.022889,0.008432,-0.821177,0.778139,6.254167,-49.073101
761,0.998185,0.456219,-1.297415,-0.094365,-0.001205,-0.825193,1.596361,5.373061,-58.325829
762,1.000504,0.441621,-1.307743,-0.073484,0.042967,-0.858119,2.036989,4.114211,-59.710442
763,1.000504,0.441621,-1.307743,-0.039754,0.030918,-0.858923,1.470596,5.624742,-56.374519
764,0.988911,0.446487,-1.320652,-0.112034,0.03654,-0.740866,0.337511,4.806519,-49.954205
765,0.995867,0.446487,-1.323234,-0.061437,0.043769,-0.79628,1.407564,5.561858,-49.450695
766,0.986592,0.434321,-1.305161,-0.031723,0.04136,-0.770581,2.100021,4.743636,-48.128963
767,0.979636,0.434321,-1.299997,-0.076697,0.054209,-0.777809,2.225786,5.121231,-49.765408
768,0.968042,0.419722,-1.299997,-0.035738,-0.002008,-0.784234,3.107041,6.191283,-52.220226
769,0.963405,0.422155,-1.294833,-0.021283,0.033329,-0.865347,2.414733,5.121231,-52.597969
770,0.963405,0.422155,-1.294833,-0.040558,0.037345,-0.800295,1.155883,2.540499,-52.409023
771,0.963405,0.409989,-1.320652,-0.019676,0.038951,-0.789053,3.358871,7.324219,-49.513729
772,0.968042,0.417289,-1.320652,-0.063044,0.014856,-0.813948,0.841171,3.925264,-52.472054
773,0.968042,0.417289,-1.312907,-0.016465,0.047784,-0.808326,0.778139,2.918243,-48.003048
774,0.963405,0.412422,-1.299997,-0.046982,0.042967,-0.826799,2.225786,5.310029,-47.751217
775,0.961086,0.412422,-1.305161,-0.064651,-0.017267,-0.850088,2.162904,5.435944,-51.087292
776,0.961086,0.412422,-1.305161,-0.054211,0.025298,-0.832419,2.540499,6.88374,-54.61216
777,0.9379,0.407556,-1.325816,-0.074288,0.010039,-0.810735,1.596361,4.114211,-61.158237
778,0.944856,0.407556,-1.34389,-0.013252,0.010841,-0.833224,2.288818,6.065369,-66.760185
779,0.944856,0.397823,-1.307743,-0.042164,-0.010843,-0.814753,2.603531,6.065369,-73.117462
780,0.935581,0.390524,-1.323234,0.06224,0.107214,-0.789053,2.603531,5.939454,-83.440247
781,0.926307,0.39539,-1.292251,0.067862,0.075893,-0.816357,4.995317,4.995317,-87.846222
782,0.921669,0.383224,-1.323234,-0.061437,-0.02048,-0.926384,1.974106,1.911074,-91.559891
783,0.921669,0.383224,-1.323234,-0.140142,-0.033329,-0.993042,4.428923,8.142591,-90.993347
784,0.910076,0.375925,-1.310325,-0.059029,0.061437,-0.846877,2.351701,9.653121,-79.978256
785,0.907757,0.363759,-1.323234,-0.014054,0.060633,-0.755321,0.841171,4.869551,-67.38961
786,0.900801,0.341861,-1.323234,-0.045376,0.084728,-0.804311,1.596361,2.666414,-55.052639
787,0.896164,0.351593,-1.307743,-0.06706,0.039754,-0.779416,2.414733,7.261335,-46.618282
788,0.889208,0.339427,-1.310325,-0.050195,0.022085,-0.853301,2.036989,4.869551,-44.289379
789,0.898483,0.339427,-1.307743,-0.004417,0.026903,-0.826799,1.407564,4.114211,-41.96048
790,0.898483,0.339427,-1.307743,-0.061437,0.037345,-0.844468,1.092851,3.232956,-41.016342
791,0.889208,0.339427,-1.33098,-0.03092,0.028509,-0.851694,1.659393,3.925264,-39.757492
792,0.879933,0.332128,-1.305161,-0.057422,0.008432,-0.820373,1.722276,5.435944,-41.96048
793,0.884571,0.336994,-1.31807,-0.078304,0.030918,-0.842057,0.966936,3.862381,-44.415295
794,0.875296,0.315096,-1.323234,-0.030116,0.053407,-0.728017,1.092851,6.631911,-44.604092
795,0.872977,0.319962,-1.325816,-0.040558,-0.010039,-0.872576,1.281649,3.484786,-44.415295
796,0.872977,0.319962,-1.325816,-0.045376,0.024494,-0.825995,2.729446,3.736466,-42.589905
797,0.884571,0.312662,-1.312907,-0.033329,0.03654,-0.828404,2.288818,5.561858,-42.52702
798,0.879933,0.307796,-1.33098,-0.034132,0.014856,-0.801902,1.029968,4.680604,-43.408127
799,0.884571,0.307796,-1.336144,-0.016465,0.040556,-0.771385,2.100021,6.757826,-39.128067
800,0.884571,0.298063,-1.307743,-0.034936,0.064651,-0.787447,1.281649,5.813688,-36.862045
801,0.882252,0.300496,-1.336144,-0.07509,0.01807,-0.869363,0.148714,1.533478,-32.141209
802,0.879933,0.288331,-1.315488,-0.091957,0.035738,-0.86856,1.533478,4.177094,-24.273396
803,0.879933,0.288331,-1.315488,-0.039754,0.028509,-0.80672,3.421754,7.261335,-19.804388
804,0.875296,0.290764,-1.315488,0.008432,0.029314,-0.794673,1.596361,4.365891,-21.692663
805,0.872977,0.285898,-1.320652,-0.050998,0.038147,-0.795478,0.337511,3.107041,-14.07653
806,0.861384,0.285898,-1.315488,-0.027707,0.045376,-0.818768,1.659393,3.358871,-14.391243
807,0.859065,0.29563,-1.312907,-0.017267,0.015661,-0.809933,1.848191,4.428923,-18.293709
808,0.854428,0.283464,-1.315488,-0.026905,0.012448,-0.788249,0.715256,3.232956,-16.279518
809,0.854428,0.283464,-1.315488,-0.068666,0.034934,-0.812342,1.344681,4.051179,-14.265328
810,0.866021,0.283464,-1.346472,-0.052604,0.028509,-0.819571,1.911074,4.303008,-13.887733
811,0.861384,0.271299,-1.320652,-0.050195,0.032525,-0.807524,2.100021,4.932433,-8.033961
812,0.856747,0.276165,-1.336144,-0.053407,0.052602,-0.830815,1.533478,3.988296,-8.348674
813,0.859065,0.283464,-1.325816,-0.057422,0.03654,-0.817162,1.659393,4.114211,-8.726269
814,0.870659,0.276165,-1.354217,-0.052604,0.014054,-0.808326,1.470596,4.554689,-10.048151
815,0.870659,0.281031,-1.323234,-0.081515,0.024494,-0.813948,1.722276,3.799498,-9.418726
816,0.870659,0.281031,-1.323234,-0.058226,0.029314,-0.821979,1.470596,4.365891,-6.900877
817,0.866021,0.288331,-1.315488,-0.050195,0.034934,-0.838846,1.911074,4.743636,-5.264431
818,0.863703,0.281031,-1.341308,-0.038951,0.03654,-0.835632,1.407564,3.736466,-1.110137
819,0.861384,0.271299,-1.328398,-0.0518,0.030116,-0.809933,1.281649,3.358871,0.589341
820,0.872977,0.266432,-1.338726,-0.046982,0.026101,-0.814753,1.281649,3.358871,0.148714
821,0.861384,0.273732,-1.33098,-0.040558,0.027707,-0.817162,2.036989,3.799498,0.589341
822,0.861384,0.273732,-1.33098,-0.048589,0.031723,-0.805115,1.533478,3.736466,-0.103116
823,0.866021,0.266432,-1.333562,-0.055013,0.030918,-0.799493,1.533478,3.736466,0.022799
824,0.866021,0.276165,-1.33098,-0.04618,0.028509,-0.793069,1.155883,3.673583,-1.991391
825,0.856747,0.271299,-1.325816,-0.049391,0.019676,-0.821979,1.470596,3.107041,0.337511
826,0.856747,0.263999,-1.341308,-0.050195,0.025298,-0.83483,1.722276,4.051179,-2.809614
827,0.852109,0.283464,-1.338726,-0.03092,0.03654,-0.803509,2.100021,5.184263,-8.474588
828,0.861384,0.273732,-1.315488,-0.054211,0.016463,-0.804311,1.344681,3.358871,-5.956739
829,0.861384,0.273732,-1.315488,-0.048589,0.034132,-0.790658,1.785308,4.239976,-18.356592
830,0.854428,0.281031,-1.34389,-0.037345,0.017267,-0.83483,1.974106,4.806519,-19.804388
831,0.863703,0.273732,-1.31807,-0.021283,0.038951,-0.805918,1.722276,4.932433,-26.917011
832,0.854428,0.268865,-1.31807,-0.046982,0.042967,-0.800295,1.533478,4.177094,-24.273396
833,0.854428,0.259133,-1.31807,-0.064651,0.087939,-0.802704,2.288818,5.750656,-23.706854
834,0.847472,0.271299,-1.325816,-0.053407,0.032525,-0.850088,2.540499,5.498976,-16.971975
835,0.852109,0.268865,-1.320652,-0.040558,0.01807,-0.814753,0.526309,2.855361,-14.139414
836,0.852109,0.268865,-1.320652,-0.029314,-0.005221,-0.813948,1.911074,4.428923,-17.790199
837,0.856747,0.2494,-1.34389,0.00281,0.002008,-0.798689,2.288818,5.058348,-29.497593
838,0.863703,0.251833,-1.346472,-0.052604,0.030918,-0.813146,0.463426,3.547668,-39.379745
839,0.852109,0.256699,-1.323234,-0.029314,0.021283,-0.822784,1.659393,5.121231,-49.32478
840,0.856747,0.2494,-1.307743,-0.037345,0.01807,-0.797084,2.603531,6.317198,-49.891323
841,0.854428,0.254266,-1.320652,-0.031723,0.022085,-0.824388,1.470596,3.925264,-55.619179
842,0.854428,0.254266,-1.320652,-0.104805,0.040556,-0.809131,1.596361,5.058348,-46.744198
843,0.842835,0.239667,-1.33098,-0.030116,0.074286,-0.827601,2.225786,5.624742,-40.512829
844,0.847472,0.246967,-1.34389,-0.072682,0.040556,-0.83483,1.911074,4.806519,-30.819473
845,0.835879,0.239667,-1.33098,-0.050998,0.054209,-0.819571,1.848191,4.743636,-25.091618
846,0.847472,0.237234,-1.346472,-0.046982,0.04136,-0.829208,2.100021,4.365891,-19.363762
847,0.842835,0.244534,-1.346472,-0.063044,0.033329,-0.830815,1.533478,4.491806,-16.594231
848,0.849791,0.234801,-1.307743,-0.04136,0.030918,-0.827601,1.407564,4.051179,-20.119101
849,0.849791,0.234801,-1.307743,-0.044573,0.021283,-0.821979,1.722276,4.428923,-27.483404
850,0.854428,0.220202,-1.325816,-0.034132,0.010039,-0.846072,2.288818,4.932433,-35.666077
851,0.845153,0.229935,-1.325816,-0.040558,0.00763,-0.825193,2.288818,5.561858,-46.429485
852,0.835879,0.225068,-1.34389,-0.036542,0.01807,-0.813146,1.659393,6.505996,-64.305367
853,0.831241,0.227501,-1.341308,-0.069468,0.045376,-0.819571,1.092851,5.121231,-65.941963
854,0.838197,0.215336,-1.31807,-0.039754,0.014856,-0.81154,1.596361,4.743636,-63.361229
855,0.838197,0.215336,-1.31807,-0.032527,0.068666,-0.830815,1.848191,4.869551,-59.081013
856,0.847472,0.20317,-1.361963,-0.036542,0.045376,-0.831617,1.722276,3.988296,-50.017239
857,0.835879,0.188571,-1.299997,-0.055013,0.047784,-0.797084,1.785308,5.435944,-44.226349
858,0.842835,0.183704,-1.336144,-0.057422,0.010841,-0.819571,1.974106,4.806519,-40.512829
859,0.847472,0.188571,-1.34389,-0.027707,0.038951,-0.851694,1.407564,4.806519,-46.177654
860,0.840516,0.178838,-1.341308,-0.030116,-0.003614,-0.846877,1.344681,4.869551,-44.918804
861,0.83356,0.176405,-1.320652,-0.030116,0.00281,-0.834026,1.281649,4.995317,-45.611115
862,0.83356,0.176405,-1.320652,-0.055013,0.034934,-0.789856,1.596361,4.177094,-52.849651
863,0.840516,0.161806,-1.336144,-0.027707,0.034132,-0.849285,2.100021,4.932433,-61.409916
864,0.83356,0.154506,-1.336144,-0.050195,0.034934,-0.83001,3.736466,6.317198,-59.081013
865,0.83356,0.152073,-1.346472,-0.038149,0.029314,-0.838041,1.785308,3.925264,-62.731804
866,0.840516,0.14964,-1.34389,-0.019676,0.059029,-0.836437,1.911074,4.743636,-55.745094
867,0.831241,0.14964,-1.338726,-0.06706,0.023692,-0.805918,1.785308,5.498976,-46.177654
868,0.831241,0.14964,-1.338726,-0.043769,0.003614,-0.788249,1.281649,4.743636,-40.953308
869,0.835879,0.14964,-1.364545,-0.047784,0.03654,-0.83001,2.162904,5.247146,-41.079224
870,0.849791,0.144774,-1.361963,-0.05662,0.028509,-0.821979,2.603531,5.435944,-36.862045
871,0.840516,0.147207,-1.359381,-0.002812,0.006023,-0.818768,1.470596,4.680604,-44.037552
872,0.840516,0.139907,-1.346472,-0.050195,0.029314,-0.809131,1.281649,4.491806,-58.010971
873,0.83356,0.135041,-1.33098,-0.052604,0.033329,-0.821979,2.162904,5.813688,-64.305367
874,0.83356,0.132608,-1.354217,-0.010843,0.024494,-0.846072,2.540499,6.505996,-70.159134
875,0.83356,0.132608,-1.354217,0.00281,0.030116,-0.835632,2.414733,6.317198,-75.32045
876,0.847472,0.127741,-1.361963,-0.05662,0.019676,-0.78102,0.841171,4.114211,-77.397675
877,0.83356,0.122875,-1.359381,-0.026101,0.012448,-0.842057,1.848191,5.624742,-72.613953
878,0.838197,0.115576,-1.31807,-0.077499,0.008432,-0.8011,2.162904,6.631911,-69.466682
879,0.838197,0.100976,-1.307743,-0.026101,0.080712,-0.815555,1.848191,6.191283,-67.074898
880,0.845153,0.098543,-1.349053,-0.018874,0.061437,-0.815555,1.029968,6.380081,-57.381538
881,0.845153,0.098543,-1.349053,-0.050195,0.047784,-0.808326,0.526309,4.806519,-47.184826
882,0.838197,0.100976,-1.380037,-0.045376,0.014054,-0.795478,1.848191,4.617721,-43.471157
883,0.845153,0.098543,-1.349053,-0.070273,0.026903,-0.825193,2.036989,5.624742,-39.946289
884,0.847472,0.081511,-1.333562,-0.050998,0.020479,-0.856514,1.281649,4.491806,-39.25383
885,0.840516,0.083944,-1.354217,-0.050195,0.002008,-0.805918,0.778139,4.365891,-45.925827
886,0.835879,0.076645,-1.336144,-0.045376,0.00281,-0.809933,0.966936,6.065369,-56.059807
887,0.845153,0.066912,-1.367127,-0.063848,0.018872,-0.825193,1.848191,5.058348,-57.507454
888,0.845153,0.066912,-1.367127,-0.038951,0.057422,-0.830815,1.596361,5.310029,-57.885197
889,0.835879,0.059613,-1.320652,-0.042164,-0.000401,-0.837239,0.966936,6.128401,-59.521645
890,0.840516,0.071779,-1.336144,-0.058226,0.049391,-0.813146,1.659393,5.939454,-62.731804
891,0.847472,0.057179,-1.328398,-0.036542,0.04136,-0.842057,1.911074,6.505996,-66.697296
892,0.849791,0.059613,-1.307743,-0.049391,0.042967,-0.773794,0.778139,5.561858,-58.514626
893,0.840516,0.040147,-1.323234,-0.023692,0.056618,-0.830815,2.477616,4.428923,-48.003048
894,0.845153,0.040147,-1.320652,-0.043769,0.025298,-0.858119,2.981126,5.310029,-51.024258
895,0.845153,0.040147,-1.320652,-0.064651,0.035738,-0.84527,1.785308,5.121231,-52.031429
896,0.842835,0.035281,-1.374872,-0.054211,0.024494,-0.838041,2.225786,5.876571,-51.276089
897,0.859065,0.037714,-1.361963,-0.022889,0.013252,-0.839648,1.470596,4.932433,-47.56242
898,0.845153,0.035281,-1.336144,-0.081515,-0.008432,-0.78102,1.029968,3.295839,-47.56242
899,0.856747,0.042581,-1.351635,-0.055013,0.019676,-0.817162,2.100021,4.617721,-48.380642
900,0.856747,0.032848,-1.3852,-0.061437,0.052602,-0.815555,3.107041,6.757826,-50.646664
901,0.856747,0.032848,-1.3852,-0.04618,0.038147,-0.804311,1.659393,5.247146,-51.779598
902,0.859065,0.027981,-1.328398,-0.062242,0.058224,-0.814753,1.281649,4.869551,-50.961376
903,0.861384,0.032848,-1.346472,-0.067864,0.028509,-0.823586,2.540499,6.694794,-50.772579
904,0.863703,0.023115,-1.336144,-0.0518,0.014856,-0.839648,1.848191,5.561858,-52.157341
905,0.870659,0.013383,-1.356799,-0.036542,0.000401,-0.831617,0.589341,5.058348,-58.010971
906,0.86834,0.015816,-1.367127,-0.081515,0.06706,-0.840452,1.407564,5.687773,-65.753014
907,0.875296,0.001216,-1.359381,-0.036542,0.034132,-0.857316,1.218766,5.058348,-68.585571
908,0.875296,0.001216,-1.359381,-0.059831,0.026903,-0.807524,1.218766,4.743636,-71.166161
909,0.859065,0.013383,-1.359381,-0.036542,0.046982,-0.74729,1.659393,5.813688,-74.313431
910,0.877615,0.001216,-1.356799,0.00281,0.044571,-0.79628,2.100021,6.569028,-75.131653
911,0.863703,0.001216,-1.34389,-0.050195,0.028509,-0.883818,2.162904,4.995317,-73.243378
912,0.863703,-0.006083,-1.34389,-0.021283,0.022085,-0.850088,0.904053,4.932433,-63.801857
913,0.861384,-0.015816,-1.354217,-0.019676,0.038147,-0.847679,1.281649,5.373061,-58.640541
914,0.861384,-0.015816,-1.354217,-0.055013,-0.048589,-0.800295,1.470596,4.114211,-62.668919
915,0.872977,-0.018249,-1.349053,-0.039754,0.035738,-0.827601,2.666414,6.569028,-68.333748
916,0.861384,-0.018249,-1.33098,-0.04618,0.021283,-0.80672,2.729446,5.247146,-68.396774
917,0.86834,-0.013382,-1.323234,-0.055013,0.015661,-0.835632,2.100021,6.128401,-69.214996
918,0.86834,-0.020682,-1.361963,-0.035738,0.014856,-0.797887,1.911074,5.561858,-72.991547
919,0.861384,-0.020682,-1.34389,-0.031723,0.030116,-0.778612,1.785308,6.443113,-76.705215
920,0.877615,-0.030414,-1.341308,-0.082319,0.055013,-0.807524,1.596361,5.876571,-84.761978
921,0.877615,-0.030414,-1.341308,-0.017267,0.061437,-0.837239,1.848191,4.869551,-85.076691
922,0.872977,-0.032848,-1.359381,-0.006827,0.045376,-0.805115,2.100021,6.694794,-86.776169
923,0.889208,-0.04988,-1.367127,-0.07509,0.070271,-0.813948,2.036989,6.317198,-76.201706
924,0.882252,-0.052313,-1.359381,-0.061437,0.075893,-0.784234,1.911074,6.317198,-63.172428
925,0.886889,-0.04258,-1.354217,-0.058226,0.099986,-0.832419,2.855361,6.317198,-49.828442
926,0.886889,-0.045014,-1.369709,-0.052604,0.069468,-0.820373,2.036989,6.065369,-42.52702
927,0.886889,-0.045014,-1.369709,-0.042164,0.042967,-0.820373,1.407564,4.491806,-37.869064
928,0.884571,-0.059613,-1.346472,-0.038951,0.028509,-0.809131,1.470596,4.365891,-37.680267
929,0.90312,-0.062046,-1.364545,-0.065453,0.03654,-0.789856,2.100021,5.058348,-39.631577
930,0.886889,-0.054746,-1.369709,-0.003614,0.00281,-0.79628,1.407564,5.058348,-42.401104
931,0.898483,-0.052313,-1.377455,-0.034132,0.015661,-0.843663,1.911074,4.995317,-49.765408
932,0.886889,-0.064479,-1.390364,-0.034936,0.01807,-0.831617,1.218766,4.554689,-51.527916
933,0.886889,-0.064479,-1.374872,-0.027707,0.028509,-0.825995,1.659393,3.799498,-60.276985
934,0.886889,-0.064479,-1.374872,-0.022889,0.038147,-0.795478,1.407564,3.170073,-58.136875
935,0.896164,-0.062046,-1.364545,-0.102396,0.055013,-0.77299,2.603531,4.743636,-57.759285
936,0.891527,-0.064479,-1.392946,0.010841,0.044571,-0.823586,2.225786,3.862381,-50.457867
937,0.912395,-0.066912,-1.361963,-0.038951,0.033329,-0.822784,2.855361,4.680604,-46.366455
938,0.912395,-0.071779,-1.390364,-0.014054,0.014054,-0.797887,1.155883,3.799498,-46.555401
939,0.90312,-0.074212,-1.380037,-0.043769,0.044571,-0.812342,1.218766,3.610551,-46.492367
940,0.90312,-0.074212,-1.380037,-0.049391,0.039754,-0.825193,2.540499,5.813688,-47.751217
941,0.90312,-0.081511,-1.367127,-0.035738,0.043769,-0.827601,2.351701,5.435944,-48.128963
942,0.907757,-0.086377,-1.356799,-0.038951,0.029314,-0.831617,2.036989,4.051179,-56.059807
943,0.907757,-0.086377,-1.372291,-0.026905,0.046178,-0.779416,2.288818,4.932433,-64.053688
944,0.905439,-0.09611,-1.377455,-0.034132,0.038147,-0.847679,2.540499,5.813688,-64.305367
945,0.914713,-0.088811,-1.377455,-0.001205,0.035738,-0.816357,2.225786,5.624742,-60.088188
946,0.914713,-0.09611,-1.367127,-0.055815,0.028509,-0.793871,1.407564,5.058348,-59.081013
947,0.914713,-0.09611,-1.367127,-0.053407,0.030918,-0.813146,1.911074,5.435944,-56.122692
948,0.921669,-0.09611,-1.369709,-0.028511,0.009234,-0.812342,1.470596,4.491806,-58.073997
949,0.921669,-0.100976,-1.372291,-0.04136,0.034934,-0.799493,0.904053,4.303008,-59.521645
950,0.923988,-0.100976,-1.356799,-0.05662,0.058224,-0.836437,2.414733,5.435944,-59.773479
951,0.910076,-0.098543,-1.380037,-0.034936,0.009234,-0.789053,1.659393,4.428923,-55.682064
952,0.917032,-0.105843,-1.3852,-0.042164,0.046982,-0.835632,2.666414,5.310029,-57.255775
953,0.926307,-0.110709,-1.364545,-0.049391,0.015661,-0.790658,1.659393,5.373061,-55.933891
954,0.926307,-0.110709,-1.364545,-0.035738,0.016463,-0.810735,1.659393,5.247146,-56.059807
955,0.923988,-0.108276,-1.361963,-0.026905,0.039754,-0.83001,1.785308,4.303008,-54.737926
956,0.928625,-0.110709,-1.367127,-0.0518,0.030116,-0.802704,1.722276,4.995317,-51.276089
957,0.928625,-0.115576,-1.349053,-0.060635,0.050193,-0.8011,1.533478,5.184263,-49.828442
958,0.9379,-0.118009,-1.377455,-0.017267,0.047784,-0.788249,1.470596,4.428923,-51.905514
959,0.940219,-0.115576,-1.364545,-0.071075,0.037345,-0.827601,2.729446,5.310029,-52.534939
960,0.940219,-0.115576,-1.364545,-0.045376,0.013252,-0.822784,2.918243,5.058348,-50.709545
961,0.930944,-0.108276,-1.377455,-0.018874,0.020479,-0.820373,1.407564,3.358871,-50.646664
962,0.940219,-0.115576,-1.390364,-0.040558,0.015661,-0.78102,2.288818,5.247146,-56.122692
963,0.949493,-0.127741,-1.3852,-0.05662,0.052602,-0.816357,1.092851,3.421754,-58.703423
964,0.949493,-0.125308,-1.377455,-0.022889,0.025298,-0.768974,3.736466,8.772016,-63.109398
965,0.944856,-0.132608,-1.377455,-0.036542,0.033329,-0.816357,4.177094,7.450133,-67.515526
966,0.949493,-0.137474,-1.349053,-0.027707,-0.002812,-0.8011,0.778139,3.610551,-70.599762
967,0.949493,-0.137474,-1.349053,-0.064651,0.045376,-0.839648,1.911074,2.981126,-68.963173
968,0.954131,-0.14234,-1.34389,-0.017267,0.040556,-0.833224,4.365891,6.443113,-71.166161
969,0.961086,-0.147207,-1.369709,0.010039,-0.054211,-0.78102,5.184263,6.254167,-78.153015
970,0.974999,-0.152073,-1.416183,-0.108821,0.055815,-0.76255,4.680604,3.421754,-88.790359
971,0.958768,-0.152073,-1.382618,0.030116,0.286308,-0.773794,2.729446,4.303008,-82.810822
972,0.97268,-0.152073,-1.41102,0.014054,-0.029314,-0.719986,1.281649,4.051179,-78.0271
973,0.97268,-0.152073,-1.41102,-0.094365,0.045376,-0.737655,0.652224,5.939454,-73.117462
974,0.97268,-0.147207,-1.380037,-0.025298,0.034132,-0.768172,2.729446,4.743636,-71.355103
975,0.970361,-0.156939,-1.3852,-0.009236,0.045376,-0.912731,3.295839,8.394271,-70.536736
976,0.981955,-0.166672,-1.380037,-0.075895,0.066255,-0.817964,1.722276,4.303008,-70.662651
977,0.981955,-0.173972,-1.395528,-0.022889,0.022085,-0.795478,2.036989,4.743636,-69.214996
978,0.988911,-0.178838,-1.400692,-0.04136,0.029314,-0.817162,0.652224,5.876571,-67.137779
979,0.986592,-0.181271,-1.380037,-0.043769,0.06224,-0.872576,0.211596,4.806519,-67.452492
980,0.986592,-0.181271,-1.380037,-0.061437,0.025298,-0.803509,0.274628,4.428923,-63.550026
981,0.986592,-0.181271,-1.382618,-0.03092,0.064651,-0.809933,0.652224,2.477616,-59.521645
982,0.991229,-0.181271,-1.390364,-0.05662,0.06224,-0.816357,1.659393,4.554689,-59.647556
983,0.986592,-0.188571,-1.439421,-0.083926,0.031723,-0.801902,-1.110137,3.988296,-58.073997
984,0.993548,-0.186137,-1.421347,-0.035738,0.046982,-0.805115,-0.040084,3.610551,-58.136875
985,1.000504,-0.178838,-1.403274,-0.013252,0.03654,-0.810735,1.911074,6.002486,-58.955257
986,1.000504,-0.178838,-1.403274,-0.050998,0.040556,-0.821177,1.218766,4.932433,-60.276985
987,1.000504,-0.178838,-1.395528,-0.087941,0.043769,-0.788249,1.533478,4.869551,-62.543003
988,0.995867,-0.181271,-1.436839,0.017267,0.019676,-0.842861,2.729446,7.701964,-67.263695
989,0.991229,-0.186137,-1.418765,-0.040558,0.058224,-0.838846,1.722276,5.876571,-67.767204
990,0.991229,-0.188571,-1.418765,-0.114443,0.046178,-0.766565,0.148714,3.799498,-64.745995
991,1.000504,-0.183704,-1.395528,0.002008,0.059831,-0.842057,0.715256,4.806519,-63.550026
992,1.009778,-0.200736,-1.41102,-0.03092,0.020479,-0.820373,1.344681,4.051179,-59.395729
993,1.009778,-0.200736,-1.41102,-0.066257,0.055013,-0.826799,0.274628,4.932433,-52.786766
994,1.000504,-0.20317,-1.405856,0.000401,-0.002008,-0.865347,3.170073,8.960814,-47.688335
995,1.00746,-0.210469,-1.416183,-0.050998,0.039754,-0.846072,2.603531,6.317198,-43.911636
996,1.012097,-0.212902,-1.41102,-0.03092,0.066255,-0.813146,-0.606626,1.344681,-45.422318
997,1.009778,-0.210469,-1.413602,-0.01807,0.038951,-0.834026,2.100021,4.869551,-43.848755
998,1.016734,-0.210469,-1.403274,-0.055013,0.034132,-0.844468,2.855361,5.813688,-45.988857
999,1.016734,-0.210469,-1.403274,-0.035738,0.0518,-0.83001,2.477616,5.310029,-43.093414
1000,1.014416,-0.220202,-1.408437,-0.080712,0.063044,-0.825995,1.722276,5.939454,-47.499538
1001,1.026009,-0.220202,-1.392946,-0.026905,0.034132,-0.768974,1.155883,4.806519,-52.786766
1002,1.019053,-0.212902,-1.3852,-0.057422,0.04136,-0.7754,1.848191,5.435944,-51.653683
1003,1.019053,-0.220202,-1.421347,0.014856,0.014054,-0.883016,2.100021,4.365891,-54.045616
1004,1.035284,-0.225068,-1.403274,-0.017267,0.050998,-0.802704,2.792329,7.009506,-55.430382
1005,1.028328,-0.220202,-1.39811,-0.083121,0.028509,-0.820373,1.155883,5.310029,-58.829334
1006,1.028328,-0.220202,-1.39811,-0.04618,0.042162,-0.813948,3.547668,7.261335,-62.16526
1007,1.035284,-0.220202,-1.426511,-0.052604,0.043769,-0.829208,2.981126,5.813688,-59.773479
1008,1.035284,-0.220202,-1.413602,-0.045376,0.067862,-0.833224,2.540499,4.932433,-56.941063
1009,1.037603,-0.227501,-1.426511,-0.038951,0.076697,-0.83483,2.225786,6.002486,-53.101482
1010,1.032965,-0.232368,-1.421347,-0.049391,0.050193,-0.832419,2.288818,5.058348,-53.730904
1011,1.032965,-0.237234,-1.423929,-0.044573,0.020479,-0.785036,2.036989,5.121231,-47.814251
1012,1.035284,-0.234801,-1.434257,-0.067864,0.047784,-0.778612,2.162904,7.450133,-40.261002
1013,1.035284,-0.234801,-1.434257,-0.042967,0.026101,-0.805115,1.911074,6.002486,-39.568542
1014,1.046877,-0.246967,-1.403274,-0.012449,0.028509,-0.841254,2.100021,5.561858,-40.386917
1015,1.04224,-0.239667,-1.426511,-0.030116,-0.008432,-0.807524,1.722276,5.813688,-45.107605
1016,1.049196,-0.239667,-1.39811,-0.126489,0.307992,-0.646903,2.162904,8.457303,-48.25473
1017,1.051515,-0.251833,-1.408437,0.048587,0.046982,-0.756125,5.247146,10.15678,-29.623507
1018,1.05847,-0.246967,-1.421347,-0.050998,0.042967,-0.776203,-4.320293,-6.460399,-30.630676
1019,1.05847,-0.246967,-1.421347,-0.062242,0.06224,-0.862938,4.554689,8.331388,-19.867271
1020,1.053833,-0.239667,-1.442003,-0.037345,-0.014858,-0.780218,2.414733,7.009506,-23.014545
1021,1.063108,-0.2421,-1.423929,-0.057422,0.054209,-0.817162,1.029968,3.421754,-30.378847
1022,1.060789,-0.234801,-1.434257,-0.034132,-0.004417,-0.8011,0.526309,5.310029,-33.903717
1023,1.053833,-0.246967,-1.408437,-0.050195,0.029314,-0.817964,2.414733,4.869551,-38.246811
1024,1.065427,-0.232368,-1.416183,-0.050195,0.078302,-0.807524,1.281649,4.869551,-43.596924
1025,1.067745,-0.2494,-1.421347,-0.013252,0.032525,-0.797084,2.540499,6.128401,-42.463989
1026,1.067745,-0.2494,-1.421347,-0.045376,0.055013,-0.802704,1.407564,5.373061,-44.604092
1027,1.051515,-0.259133,-1.416183,0.003614,0.056618,-0.783431,0.904053,5.058348,-46.114773
1028,1.072383,-0.254266,-1.429093,-0.095972,0.049391,-0.84527,-0.291914,1.722276,-46.30357
1029,1.072383,-0.263999,-1.423929,-0.006023,-0.013252,-0.841254,3.170073,6.443113,-49.199017
1030,1.083976,-0.246967,-1.418765,-0.084728,0.056618,-0.825193,1.974106,5.750656,-57.192741
1031,1.07702,-0.261566,-1.447166,-0.042164,0.035738,-0.820373,0.715256,4.554689,-64.431282
1032,1.07702,-0.261566,-1.447166,-0.092759,0.063846,-0.807524,2.666414,3.799498,-67.263695
1033,1.081657,-0.266432,-1.408437,-0.036542,0.006023,-0.782627,2.792329,5.939454,-63.487141
1034,1.090932,-0.266432,-1.439421,-0.057422,0.028509,-0.834026,1.596361,6.254167,-59.836357
1035,1.100206,-0.278598,-1.429093,-0.04618,0.054209,-0.838041,1.659393,4.680604,-56.563316
1036,1.104844,-0.273732,-1.460076,-0.038149,0.032525,-0.835632,3.170073,5.435944,-53.164364
1037,1.090932,-0.281031,-1.449748,-0.072682,0.045376,-0.785036,0.904053,5.310029,-45.73703
1038,1.104844,-0.266432,-1.449748,-0.054211,0.07509,-0.858119,-0.228882,1.911074,-41.771679
1039,1.104844,-0.266432,-1.449748,-0.049391,0.043769,-0.8011,3.232956,6.443113,-33.777802
1040,1.104844,-0.285897,-1.460076,-0.06706,0.038951,-0.839648,0.337511,2.981126,-31.889528
1041,1.104844,-0.268865,-1.439421,-0.059831,0.024494,-0.85571,1.407564,3.170073,-28.490574
1042,1.102525,-0.278598,-1.423929,-0.038149,0.055815,-0.813948,2.918243,6.380081,-24.273396
1043,1.104844,-0.285897,-1.416183,-0.077499,0.064651,-0.816357,0.841171,3.736466,-28.679371
1044,1.118756,-0.283464,-1.442003,-0.008432,0.034934,-0.813948,2.666414,5.687773,-29.560625
1045,1.118756,-0.283464,-1.442003,-0.04618,0.070271,-0.820373,1.911074,4.869551,-30.945391
1046,1.107162,-0.285897,-1.460076,-0.016465,0.029314,-0.769778,0.589341,3.925264,-36.16959
1047,1.114119,-0.283464,-1.457494,-0.046982,0.043769,-0.843663,2.351701,5.058348,-38.561523
1048,1.109481,-0.281031,-1.421347,-0.033329,-0.004417,-0.837239,2.540499,4.869551,-44.100582
1049,1.116437,-0.288331,-1.454912,-0.047784,0.030918,-0.813948,3.044158,6.317198,-39.25383
1050,1.123393,-0.281031,-1.444584,-0.059029,0.040556,-0.828404,1.344681,3.988296,-40.323883
1051,1.12803,-0.300496,-1.45233,-0.068666,0.0518,-0.872576,1.596361,3.988296,-40.072205
1052,1.12803,-0.300496,-1.45233,-0.07509,0.092759,-0.78584,1.470596,4.743636,-38.372726
1053,1.12803,-0.300496,-1.431675,-0.04618,0.050193,-0.857316,3.484786,6.128401,-33.148376
1054,1.132668,-0.29563,-1.423929,-0.042164,0.045376,-0.786642,1.155883,4.617721,-36.547333
1055,1.123393,-0.29563,-1.439421,-0.036542,0.099183,-0.842861,2.855361,6.002486,-30.945391
1056,1.125712,-0.298063,-1.447166,-0.059831,0.071075,-0.787447,0.778139,2.603531,-34.847855
1057,1.134986,-0.29563,-1.442003,-0.062242,0.026903,-0.833224,1.911074,5.310029,-33.274292
1058,1.12803,-0.293197,-1.439421,-0.079106,0.082317,-0.851694,1.281649,4.114211,-36.924927
1059,1.12803,-0.293197,-1.439421,-0.01807,0.04136,-0.793871,2.477616,5.435944,-33.148376
1060,1.139624,-0.30293,-1.45233,-0.070273,0.055013,-0.846877,1.407564,4.177094,-29.875336
1061,1.141943,-0.307796,-1.416183,-0.009236,0.014054,-0.789053,0.274628,4.491806,-27.042925
1062,1.160492,-0.285897,-1.426511,-0.053407,0.068666,-0.88944,1.407564,3.925264,-29.308796
1063,1.139624,-0.307796,-1.426511,-0.026101,0.022887,-0.832419,1.848191,5.498976,-26.224554
1064,1.153536,-0.293197,-1.462658,-0.045376,0.044571,-0.817964,2.225786,3.358871,-24.650991
1065,1.153536,-0.293197,-1.462658,-0.052604,0.047784,-0.833224,0.652224,2.855361,-21.440834
1066,1.141943,-0.30293,-1.444584,-0.040558,0.043769,-0.83483,2.162904,4.365891,-19.804388
1067,1.148898,-0.305363,-1.457494,-0.038951,0.03654,-0.828404,2.414733,6.002486,-18.104912
1068,1.158173,-0.30293,-1.431675,-0.052604,0.01807,-0.823586,1.029968,3.862381,-21.818579
1069,1.151217,-0.312662,-1.442003,-0.048589,0.053407,-0.818768,0.841171,3.673583,-24.776905
1070,1.155855,-0.300496,-1.434257,-0.053407,0.06706,-0.798689,3.232956,5.750656,-26.035755
1071,1.172085,-0.298063,-1.454912,-0.034132,0.006826,-0.819571,2.603531,4.806519,-30.693562
1072,1.172085,-0.298063,-1.454912,-0.053407,0.026101,-0.803509,1.911074,5.310029,-33.65189
1073,1.167448,-0.30293,-1.444584,-0.059029,0.050998,-0.787447,1.911074,5.624742,-41.205139
1074,1.167448,-0.290764,-1.434257,0.012448,0.014054,-0.803509,1.848191,6.380081,-46.429485
1075,1.165129,-0.298063,-1.444584,-0.078304,0.052602,-0.854103,1.218766,3.988296,-53.793789
1076,1.18136,-0.290764,-1.454912,-0.025298,0.091152,-0.85571,1.281649,4.869551,-57.192741
1077,1.185997,-0.300496,-1.439421,-0.069468,0.063846,-0.801902,0.589341,5.121231,-56.437405
1078,1.185997,-0.300496,-1.439421,-0.043769,0.044571,-0.858119,1.281649,3.484786,-55.493267
1079,1.19759,-0.298063,-1.447166,-0.04618,0.055013,-0.863741,1.659393,4.051179,-52.534939
1080,1.190634,-0.307796,-1.45233,-0.04618,0.01807,-0.858923,1.533478,4.365891,-46.744198
1081,1.192953,-0.310229,-1.454912,-0.03092,0.0518,-0.833224,2.540499,5.121231,-43.21933
1082,1.195272,-0.307796,-1.405856,-0.07509,0.060633,-0.795478,2.918243,6.128401,-38.372726
1083,1.19759,-0.332128,-1.416183,-0.087941,0.016463,-0.7754,1.344681,4.743636,-35.288483
1084,1.206865,-0.315096,-1.434257,-0.091152,0.042967,-0.805115,1.785308,5.058348,-36.73613
1085,1.206865,-0.315096,-1.434257,-0.039754,0.030918,-0.83001,3.232956,6.002486,-38.435608
1086,1.206865,-0.312662,-1.426511,-0.061437,0.048587,-0.83483,1.092851,3.925264,-40.072205
1087,1.209184,-0.324828,-1.421347,-0.034132,0.033329,-0.846877,2.666414,4.806519,-43.596924
1088,1.211502,-0.315096,-1.447166,-0.013252,0.083121,-0.820373,1.785308,5.876571,-45.170635
1089,1.209184,-0.312662,-1.454912,-0.044573,0.065453,-0.844468,-0.543594,3.547668,-48.128963
1090,1.223096,-0.324828,-1.449748,-0.05662,0.04136,-0.823586,0.966936,3.925264,-48.443676
1091,1.223096,-0.324828,-1.449748,-0.058226,0.030918,-0.799493,1.974106,5.435944,-43.596924
1092,1.230052,-0.324828,-1.426511,-0.089548,0.075893,-0.805918,2.351701,4.617721,-39.128067
1093,1.218458,-0.327261,-1.447166,-0.021283,0.065453,-0.819571,1.596361,3.673583,-30.882359
1094,1.227733,-0.319962,-1.457494,-0.036542,0.060633,-0.842861,1.785308,3.295839,-28.427542
1095,1.237008,-0.327261,-1.442003,-0.075895,0.07509,-0.846877,1.785308,3.988296,-21.315067
1096,1.227733,-0.315096,-1.45233,-0.058226,0.052602,-0.825995,0.526309,3.170073,-17.349571
1097,1.237008,-0.310229,-1.454912,-0.062242,0.030918,-0.808326,1.596361,4.239976,-15.964806
1098,1.237008,-0.310229,-1.454912,-0.04618,0.045376,-0.79628,2.288818,4.428923,-19.804388
1099,1.246282,-0.315096,-1.447166,-0.07509,0.047784,-0.803509,2.351701,5.121231,-24.965704
1100,1.246282,-0.317529,-1.442003,-0.079106,0.034934,-0.825193,1.533478,4.428923,-25.469213
1101,1.237008,-0.319962,-1.431675,-0.027707,0.020479,-0.793069,0.841171,4.239976,-29.875336
1102,1.237008,-0.319962,-1.439421,-0.084728,0.049391,-0.797084,0.841171,4.051179,-30.567644
1103,1.253238,-0.324828,-1.460076,-0.086335,0.046982,-0.797084,1.155883,5.247146,-27.609318
1104,1.246282,-0.322395,-1.436839,-0.068666,0.046178,-0.793871,2.162904,3.925264,-25.846958
1105,1.246282,-0.322395,-1.436839,-0.059029,0.040556,-0.813146,1.722276,3.358871,-20.685493
1106,1.25092,-0.327261,-1.442003,-0.060635,0.048587,-0.858923,2.729446,4.051179,-20.119101
1107,1.257876,-0.336994,-1.429093,-0.026905,0.037345,-0.835632,2.603531,3.988296,-21.252037
1108,1.262513,-0.327261,-1.429093,-0.053407,0.039754,-0.832419,3.295839,4.743636,-17.160774
1109,1.257876,-0.327261,-1.444584,-0.049391,0.037345,-0.825995,2.540499,4.680604,-15.77601
1110,1.264832,-0.334561,-1.39811,-0.042164,0.032525,-0.819571,2.603531,4.680604,-15.272498
1111,1.264832,-0.334561,-1.39811,-0.058226,0.027707,-0.838846,1.407564,4.177094,-18.986166
1112,1.26715,-0.332128,-1.454912,-0.026101,0.058224,-0.803509,1.722276,3.925264,-26.287586
1113,1.269469,-0.34186,-1.439421,-0.068666,0.035738,-0.814753,2.540499,5.058348,-31.008274
1114,1.26715,-0.324828,-1.429093,-0.005221,0.021283,-0.780218,2.225786,5.750656,-31.763615
1115,1.269469,-0.339427,-1.421347,-0.059831,0.08553,-0.791462,1.911074,5.310029,-33.463089
1116,1.281062,-0.336994,-1.444584,-0.052604,0.046178,-0.864545,1.596361,3.988296,-28.994085
1117,1.283381,-0.34186,-1.475567,-0.078304,0.057422,-0.787447,0.337511,5.876571,-27.798117
1118,1.283381,-0.34186,-1.475567,-0.054211,0.040556,-0.785036,0.652224,4.303008,-25.217533
1119,1.283381,-0.336994,-1.423929,-0.003614,0.028509,-0.764156,0.463426,4.680604,-22.070259
1120,1.281062,-0.334561,-1.434257,-0.039754,0.061437,-0.80672,1.281649,5.058348,-21.881462
1121,1.278744,-0.327261,-1.418765,-0.02048,0.039754,-0.813146,0.652224,3.736466,-22.636801
1122,1.2857,-0.334561,-1.449748,-0.019676,0.063044,-0.842057,1.848191,4.491806,-30.315966
1123,1.294974,-0.334561,-1.421347,-0.048589,0.055815,-0.797084,2.603531,5.939454,-38.435608
1124,1.294974,-0.334561,-1.421347,-0.014054,0.03654,-0.7754,1.596361,3.925264,-47.121792
1125,1.297293,-0.339427,-1.426511,0.013252,0.055815,-0.838041,2.540499,5.813688,-47.436504
1126,1.30193,-0.327261,-1.392946,-0.083926,0.027707,-0.798689,1.911074,5.247146,-51.087292
1127,1.306568,-0.336994,-1.426511,-0.049391,0.014054,-0.812342,2.288818,5.435944,-53.919704
1128,1.308886,-0.332128,-1.431675,-0.064651,0.091152,-0.763354,2.351701,7.638931,-47.184826
1129,1.304249,-0.334561,-1.41102,-0.08553,0.069468,-0.795478,1.785308,6.631911,-38.309692
1130,1.315842,-0.332128,-1.403274,-0.042164,0.056618,-0.814753,1.911074,4.743636,-31.260103
1131,1.315842,-0.332128,-1.403274,-0.018874,0.076697,-0.838846,1.596361,4.114211,-27.105808
1132,1.315842,-0.329694,-1.416183,-0.052604,0.03654,-0.818768,1.911074,3.862381,-21.440834
1133,1.318161,-0.334561,-1.41102,-0.050195,0.058224,-0.808326,2.288818,4.995317,-20.370781
1134,1.329754,-0.322395,-1.403274,-0.02048,0.038951,-0.820373,1.596361,3.988296,-19.111931
1135,1.32048,-0.317529,-1.413602,-0.063044,0.054209,-0.832419,2.225786,3.799498,-20.181984
1136,1.327436,-0.317529,-1.41102,-0.044573,0.038147,-0.798689,1.785308,4.365891,-19.552559
1137,1.327436,-0.317529,-1.41102,-0.067864,0.045376,-0.813948,1.659393,4.554689,-20.245016
1138,1.325117,-0.329694,-1.421347,-0.024496,0.049391,-0.835632,1.596361,3.232956,-22.196175
1139,1.325117,-0.332128,-1.403274,-0.064651,0.042967,-0.820373,1.533478,2.855361,-29.812304
1140,1.334391,-0.327261,-1.416183,-0.059029,0.045376,-0.810735,2.351701,5.498976,-35.854877
1141,1.339029,-0.324828,-1.426511,-0.055013,0.022887,-0.789856,2.162904,6.065369,-40.135086
1142,1.341348,-0.332128,-1.439421,-0.083121,0.064651,-0.805918,0.715256,5.247146,-44.163467
1143,1.350622,-0.332128,-1.416183,-0.040558,0.044571,-0.801902,0.463426,5.373061,-36.106705
1144,1.350622,-0.332128,-1.416183,-0.038951,0.018872,-0.787447,0.966936,4.114211,-32.896549
1145,1.341348,-0.327261,-1.408437,-0.027707,0.038147,-0.830815,1.911074,4.365891,-30.064137
1146,1.362216,-0.324828,-1.418765,-0.017267,0.033329,-0.823586,1.596361,5.247146,-38.058014
1147,1.359897,-0.329694,-1.403274,-0.042967,0.037345,-0.846877,1.974106,4.177094,-43.911636
1148,1.357578,-0.317529,-1.403274,-0.061437,0.037345,-0.870167,2.540499,3.862381,-46.114773
1149,1.366853,-0.317529,-1.418765,-0.074288,0.067862,-0.802704,1.722276,4.428923,-46.932995
1150,1.378446,-0.324828,-1.421347,-0.062242,-0.010843,-0.825193,2.666414,4.177094,-47.814251
1151,1.378446,-0.324828,-1.421347,-0.079106,0.071075,-0.785036,1.659393,4.428923,-57.570492
1152,1.376127,-0.319962,-1.431675,-0.040558,0.037345,-0.804311,2.981126,6.317198,-66.319557
1153,1.383083,-0.30293,-1.421347,-0.046982,0.034132,-0.797887,2.225786,7.072538,-64.368401
1154,1.385402,-0.305363,-1.413602,-0.076697,0.065453,-0.819571,1.155883,4.554689,-55.745094
1155,1.399314,-0.307796,-1.400692,-0.04136,0.068666,-0.820373,1.407564,4.365891,-46.24054
1156,1.403952,-0.307796,-1.400692,-0.077499,0.064651,-0.799493,1.659393,4.303008,-39.631577
1157,1.403952,-0.307796,-1.400692,-0.042164,0.050998,-0.851694,2.351701,3.610551,-32.896549
1158,1.413226,-0.317529,-1.413602,-0.042164,0.055815,-0.805115,2.351701,4.051179,-28.112829
1159,1.413226,-0.319962,-1.390364,-0.059831,0.046178,-0.79628,2.414733,5.184263,-22.007376
1160,1.422501,-0.305363,-1.3852,-0.0518,0.026903,-0.825995,1.848191,4.177094,-19.804388
1161,1.417863,-0.310229,-1.390364,-0.057422,0.057422,-0.827601,1.596361,4.177094,-20.496696
1162,1.422501,-0.312662,-1.390364,-0.04618,0.031723,-0.830815,1.785308,4.114211,-19.111931
1163,1.410908,-0.30293,-1.403274,-0.042164,0.027707,-0.791462,1.407564,5.373061,-26.728064
1164,1.410908,-0.30293,-1.403274,-0.055013,0.011645,-0.819571,1.029968,4.680604,-26.791096
1165,1.429457,-0.30293,-1.400692,-0.057422,0.033329,-0.830815,1.470596,4.680604,-27.92403
1166,1.415545,-0.29563,-1.3852,-0.050998,0.057422,-0.838846,2.100021,4.303008,-26.853979
1167,1.422501,-0.305363,-1.390364,-0.002008,0.064651,-0.850088,2.666414,4.365891,-30.44173
1168,1.436413,-0.310229,-1.405856,-0.110427,0.023692,-0.807524,1.722276,4.177094,-38.687439
1169,1.427138,-0.293197,-1.387782,-0.053407,0.050193,-0.80672,1.911074,5.561858,-40.764511
1170,1.427138,-0.293197,-1.387782,-0.036542,0.023692,-0.851694,1.344681,4.114211,-37.932098
1171,1.436413,-0.29563,-1.403274,0.019676,0.021283,-0.793069,0.778139,3.862381,-38.498642
1172,1.44105,-0.30293,-1.3852,-0.061437,0.076697,-0.836437,2.603531,4.932433,-43.282211
1173,1.445688,-0.30293,-1.377455,-0.039754,0.071075,-0.851694,1.596361,3.421754,-41.96048
1174,1.459599,-0.298063,-1.39811,-0.037345,-0.010039,-0.781825,2.162904,4.806519,-41.393936
1175,1.466555,-0.293197,-1.416183,-0.064651,0.065453,-0.797887,2.225786,6.002486,-45.611115
1176,1.466555,-0.29563,-1.372291,-0.029314,0.033329,-0.821979,3.170073,5.813688,-43.408127
1177,1.466555,-0.29563,-1.372291,-0.098381,0.063846,-0.771385,1.596361,5.813688,-46.177654
1178,1.482786,-0.29563,-1.387782,-0.04618,0.084728,-0.818768,2.792329,4.114211,-41.079224
1179,1.485105,-0.300496,-1.403274,-0.021283,0.069468,-0.821979,1.596361,4.932433,-37.680267
1180,1.482786,-0.290764,-1.390364,-0.07509,0.04136,-0.781825,3.044158,5.435944,-36.23262
1181,1.480468,-0.288331,-1.377455,-0.074288,0.030116,-0.782627,1.092851,3.673583,-41.456966
1182,1.489742,-0.278598,-1.369709,-0.030116,0.058224,-0.793871,2.288818,7.324219,-41.708649
1183,1.489742,-0.278598,-1.369709,-0.05662,0.067862,-0.810735,1.659393,4.806519,-47.625305
1184,1.499017,-0.281031,-1.328398,-0.066257,0.027707,-0.820373,2.603531,6.128401,-45.80006
1185,1.499017,-0.281031,-1.359381,-0.084728,0.03654,-0.800295,1.596361,3.673583,-46.492367
1186,1.503654,-0.271299,-1.33098,0.004417,0.069468,-0.817162,2.288818,6.002486,-43.21933
1187,1.505973,-0.281031,-1.323234,-0.089548,0.042967,-0.781825,1.407564,5.121231,-45.359432
1188,1.517566,-0.268865,-1.351635,-0.033329,0.021283,-0.850088,1.596361,3.107041,-43.156445
1189,1.52916,-0.276165,-1.351635,-0.075895,0.04136,-0.84527,1.344681,3.610551,-42.652786
1190,1.52916,-0.276165,-1.351635,-0.057422,0.034934,-0.820373,2.225786,5.498976,-43.596924
1191,1.536115,-0.271299,-1.364545,-0.087137,0.028509,-0.817964,1.785308,5.561858,-46.807079
1192,1.519885,-0.268865,-1.349053,-0.055013,0.01807,-0.821177,1.344681,3.925264,-47.940018
1193,1.543071,-0.266432,-1.333562,-0.044573,0.042967,-0.784234,1.848191,5.750656,-47.814251
1194,1.547709,-0.256699,-1.359381,-0.035738,0.055815,-0.794673,2.288818,5.624742,-47.310593
1195,1.550027,-0.251833,-1.361963,-0.037345,0.026903,-0.823586,1.848191,4.428923,-49.639492
1196,1.554665,-0.254266,-1.315488,-0.050998,0.034132,-0.842861,2.036989,4.491806,-51.842628
1197,1.554665,-0.254266,-1.315488,-0.034936,0.087939,-0.83483,2.100021,5.247146,-58.010971
1198,1.563939,-0.2421,-1.341308,-0.063044,0.059831,-0.781825,0.966936,6.254167,-62.857712
1199,1.58017,-0.2494,-1.338726,-0.059029,0.12408,-0.861332,2.918243,4.177094,-64.431282
1200,1.58017,-0.2421,-1.341308,-0.075895,0.027707,-0.761747,2.225786,6.128401,-68.64846
1201,1.591763,-0.251833,-1.351635,-0.073484,0.011645,-0.790658,1.407564,4.428923,-74.879822
1202,1.594082,-0.244534,-1.338726,-0.026101,0.066255,-0.79628,2.666414,7.953643,-72.173325
1203,1.594082,-0.244534,-1.338726,-0.088743,0.027707,-0.861332,2.855361,4.303008,-69.592598
1204,1.598719,-0.225068,-1.320652,-0.09035,0.022887,-0.83001,2.603531,6.191283,-68.585571
1205,1.598719,-0.205603,-1.328398,-0.073484,0.014054,-0.842861,2.100021,5.435944,-65.564217
1206,1.603357,-0.205603,-1.341308,-0.015661,0.079106,-0.809131,1.974106,6.694794,-61.535839
1207,1.612631,-0.198303,-1.33098,-0.093563,0.061437,-0.809933,1.533478,4.428923,-60.151073
1208,1.617269,-0.183704,-1.297415,-0.047784,0.034934,-0.813948,1.659393,6.631911,-57.948082
1209,1.612631,-0.193437,-1.336144,-0.069468,0.073484,-0.822784,1.911074,4.554689,-52.283257
1210,1.612631,-0.193437,-1.336144,-0.062242,0.022887,-0.819571,1.848191,4.932433,-47.121792
1211,1.621906,-0.186137,-1.336144,-0.064651,0.047784,-0.782627,2.036989,4.365891,-44.289379
1212,1.628862,-0.178838,-1.336144,-0.04618,0.056618,-0.838041,2.225786,6.191283,-45.422318
1213,1.633499,-0.178838,-1.307743,-0.073484,0.049391,-0.802704,2.351701,3.799498,-40.512829
1214,1.642774,-0.169105,-1.312907,-0.054211,0.023692,-0.808326,1.848191,4.869551,-38.372726
1215,1.642774,-0.169105,-1.31807,-0.055013,0.069468,-0.823586,2.981126,4.869551,-40.009171
1216,1.642774,-0.169105,-1.31807,-0.030116,0.059831,-0.821979,2.162904,5.373061,-37.99498
1217,1.654367,-0.164239,-1.320652,-0.050195,0.069468,-0.836437,1.848191,4.743636,-39.44278
1218,1.64973,-0.169105,-1.325816,-0.038951,0.068666,-0.841254,1.344681,4.554689,-37.365555
1219,1.656686,-0.14964,-1.292251,-0.04618,0.038147,-0.838041,1.281649,3.925264,-37.113876
1220,1.659005,-0.156939,-1.312907,-0.050195,0.014856,-0.838846,0.966936,4.303008,-33.840687
1221,1.670598,-0.156939,-1.299997,-0.042967,0.065453,-0.817162,2.288818,4.554689,-33.463089
1222,1.670598,-0.147207,-1.323234,-0.042967,0.017267,-0.817162,1.911074,5.184263,-29.812304
1223,1.670598,-0.147207,-1.323234,-0.061437,0.064651,-0.828404,1.596361,4.239976,-28.490574
1224,1.672917,-0.14964,-1.292251,-0.063848,0.037345,-0.829208,1.722276,4.428923,-25.217533
1225,1.672917,-0.144774,-1.294833,-0.063848,0.00281,-0.798689,2.036989,5.184263,-24.588108
1226,1.677554,-0.147207,-1.315488,-0.019676,0.04136,-0.813948,1.974106,4.869551,-32.581837
1227,1.679873,-0.130174,-1.325816,-0.061437,0.06224,-0.809131,1.722276,5.121231,-34.847855
1228,1.679873,-0.135041,-1.307743,-0.066257,0.069468,-0.803509,0.715256,3.925264,-35.729111
1229,1.679873,-0.135041,-1.307743,-0.063848,0.064651,-0.8011,2.603531,5.184263,-29.434711
1230,1.68451,-0.135041,-1.299997,-0.066257,0.028509,-0.816357,1.722276,4.680604,-26.350468
1231,1.686829,-0.127741,-1.31807,-0.073484,0.049391,-0.821979,1.596361,4.932433,-26.602299
1232,1.686829,-0.127741,-1.287087,-0.083926,0.052602,-0.812342,2.036989,5.498976,-31.889528
1233,1.686829,-0.120442,-1.312907,-0.065453,0.033329,-0.83483,1.785308,4.428923,-36.043823
1234,1.686829,-0.105843,-1.302579,-0.062242,0.038147,-0.853301,2.162904,5.247146,-33.148376
1235,1.693785,-0.108276,-1.287087,-0.058226,0.037345,-0.821979,1.344681,4.554689,-26.853979
1236,1.693785,-0.108276,-1.287087,-0.042164,0.054209,-0.801902,1.344681,4.554689,-25.091618
1237,1.696103,-0.098543,-1.274178,-0.030116,0.026903,-0.834026,2.225786,4.365891,-28.112829
1238,1.686829,-0.110709,-1.310325,-0.054211,0.030116,-0.836437,2.036989,5.561858,-35.980789
1239,1.693785,-0.10341,-1.287087,-0.095168,0.064651,-0.804311,0.715256,4.428923,-40.827541
1240,1.698422,-0.093677,-1.302579,-0.065453,0.056618,-0.829208,0.778139,4.114211,-40.890427
1241,1.710015,-0.091244,-1.271596,-0.055815,0.045376,-0.813146,1.848191,5.498976,-37.680267
1242,1.710015,-0.091244,-1.271596,-0.042164,0.046178,-0.841254,1.785308,5.247146,-37.680267
1243,1.714653,-0.083944,-1.266432,-0.0518,0.071877,-0.795478,1.029968,3.862381,-35.351364
1244,1.705378,-0.083944,-1.284505,-0.043769,0.038951,-0.8011,1.659393,4.365891,-31.197071
1245,1.712334,-0.088811,-1.261268,-0.044573,0.042967,-0.820373,2.288818,5.310029,-26.287586
1246,1.703059,-0.079078,-1.274178,-0.053407,0.032525,-0.804311,2.100021,4.365891,-26.728064
1247,1.716971,-0.074212,-1.266432,-0.060635,0.046982,-0.819571,1.974106,4.680604,-32.707752
1248,1.723927,-0.069345,-1.256104,-0.065453,0.110427,-0.810735,1.659393,5.498976,-29.812304
1249,1.723927,-0.069345,-1.256104,-0.066257,0.042162,-0.801902,1.911074,3.862381,-21.818579
1250,1.730883,-0.062046,-1.258686,-0.055013,0.057422,-0.809933,1.470596,3.925264,-16.027689
1251,1.726246,-0.071779,-1.274178,-0.057422,0.047784,-0.808326,1.470596,4.177094,-17.286688
1252,1.726246,-0.064479,-1.269014,-0.034936,0.017267,-0.819571,1.407564,4.051179,-19.993187
1253,1.733202,-0.064479,-1.240613,-0.050998,0.01807,-0.817964,1.533478,4.303008,-25.721043
1254,1.730883,-0.066912,-1.240613,-0.042164,0.044571,-0.812342,0.904053,4.239976,-29.057114
1255,1.723927,-0.059613,-1.266432,-0.042164,0.019676,-0.83483,1.911074,4.491806,-37.176758
1256,1.723927,-0.059613,-1.266432,-0.042164,0.03654,-0.836437,1.722276,4.239976,-41.897446
1257,1.730883,-0.062046,-1.25094,-0.052604,0.083121,-0.789053,1.344681,4.806519,-44.289379
1258,1.726246,-0.057179,-1.253522,-0.053407,0.07509,-0.794673,2.351701,6.380081,-38.183777
1259,1.730883,-0.045014,-1.245777,-0.042967,0.022085,-0.817162,2.036989,4.617721,-37.869064
1260,1.747114,-0.035281,-1.279342,-0.037345,0.040556,-0.798689,0.904053,4.051179,-38.498642
1261,1.742477,-0.037714,-1.279342,-0.059831,0.042967,-0.812342,1.911074,4.617721,-38.624405
1262,1.742477,-0.037714,-1.279342,-0.06706,0.040556,-0.782627,1.659393,3.862381,-34.596027
1263,1.751751,-0.04258,-1.274178,-0.060635,0.044571,-0.794673,1.470596,4.177094,-34.092514
1264,1.735521,-0.027981,-1.274178,-0.052604,0.035738,-0.783431,1.533478,5.561858,-33.966602
1265,1.75407,-0.023115,-1.248359,-0.049391,0.046982,-0.794673,1.281649,5.184263,-37.617386
1266,1.751751,-0.020682,-1.245777,-0.033329,0.014856,-0.813948,1.596361,4.680604,-42.652786
1267,1.751751,-0.010949,-1.253522,-0.061437,0.040556,-0.805115,2.351701,4.869551,-50.772579
1268,1.758707,-0.008516,-1.243195,-0.070273,0.018872,-0.774596,1.911074,5.813688,-49.010067
1269,1.758707,-0.008516,-1.243195,-0.07509,0.057422,-0.813146,1.407564,4.114211,-42.023361
1270,1.758707,0.008516,-1.238031,-0.053407,0.006826,-0.802704,1.533478,4.428923,-38.876236
1271,1.758707,0.013383,-1.274178,-0.043769,0.0518,-0.793871,1.722276,4.428923,-45.925827
1272,1.751751,0.008516,-1.245777,-0.062242,0.071075,-0.803509,1.911074,4.114211,-47.184826
1273,1.761026,0.010949,-1.261268,-0.050998,-0.016465,-0.798689,1.407564,4.554689,-41.205139
1274,1.75407,0.023115,-1.281924,-0.048589,0.047784,-0.813948,1.659393,5.876571,-45.674145
1275,1.75407,0.023115,-1.281924,-0.05662,0.03654,-0.830815,1.155883,4.239976,-49.32478
1276,1.758707,0.030415,-1.227703,-0.0518,0.049391,-0.787447,0.904053,5.184263,-49.954205
1277,1.774938,0.032848,-1.235449,-0.064651,0.06706,-0.830815,1.911074,5.058348,-52.283257
1278,1.767982,0.032848,-1.235449,-0.072682,0.00281,-0.819571,2.225786,5.247146,-47.814251
1279,1.772619,0.027981,-1.227703,-0.059831,0.04136,-0.854103,2.918243,6.065369,-41.205139
1280,1.774938,0.047447,-1.219957,-0.067864,0.024494,-0.83001,1.092851,3.988296,-36.924927
1281,1.774938,0.057179,-1.245777,-0.055013,0.031723,-0.812342,1.155883,3.232956,-39.946289
1282,1.774938,0.057179,-1.245777,-0.047784,0.029314,-0.817162,2.162904,4.995317,-38.435608
1283,1.774938,0.052313,-1.25094,-0.069468,0.077499,-0.813948,2.225786,5.561858,-32.896549
1284,1.779575,0.057179,-1.217375,-0.054211,0.039754,-0.819571,1.344681,3.862381,-29.245914
1285,1.779575,0.066912,-1.227703,-0.027707,0.023692,-0.810735,1.533478,5.058348,-31.260103
1286,1.774938,0.074212,-1.243195,-0.059831,0.046982,-0.797887,1.974106,4.932433,-32.455921
1287,1.779575,0.071779,-1.235449,-0.045376,0.040556,-0.823586,1.974106,4.743636,-32.204239
1288,1.779575,0.071779,-1.235449,-0.061437,0.046178,-0.813948,1.722276,4.051179,-31.322989
1289,1.772619,0.079078,-1.235449,-0.070273,0.042967,-0.793871,2.666414,5.121231,-32.141209
1290,1.781894,0.091244,-1.258686,-0.0518,0.010039,-0.835632,2.540499,4.680604,-36.987961
1291,1.784212,0.093677,-1.248359,-0.042967,0.055013,-0.808326,1.533478,6.002486,-40.323883
1292,1.779575,0.10341,-1.227703,-0.084728,0.065453,-0.797887,0.526309,3.736466,-30.945391
1293,1.779575,0.09611,-1.219957,-0.049391,0.034132,-0.805115,1.407564,3.484786,-25.217533
1294,1.779575,0.110709,-1.225121,-0.055013,0.021283,-0.817162,1.974106,4.365891,-29.119999
1295,1.779575,0.110709,-1.225121,-0.052604,0.026903,-0.81154,1.596361,5.247146,-33.148376
1296,1.779575,0.10341,-1.217375,-0.055013,0.006023,-0.824388,1.596361,4.680604,-29.560625
1297,1.786531,0.115576,-1.225121,-0.067864,0.050193,-0.814753,2.036989,5.310029,-29.875336
1298,1.774938,0.120442,-1.240613,-0.068666,0.018872,-0.788249,1.533478,3.799498,-33.337177
1299,1.781894,0.115576,-1.214794,-0.0518,0.014856,-0.798689,2.351701,4.680604,-34.092514
1300,1.791168,0.122875,-1.212212,-0.066257,0.039754,-0.817964,2.603531,4.428923,-34.97377
1301,1.772619,0.132608,-1.232867,-0.058226,0.050998,-0.84527,2.414733,3.484786,-31.386017
1302,1.772619,0.132608,-1.232867,-0.063044,0.056618,-0.815555,1.974106,3.862381,-27.357637
1303,1.781894,0.127741,-1.219957,-0.067864,0.047784,-0.809933,1.722276,4.743636,-22.762716
1304,1.784212,0.142341,-1.227703,-0.043769,0.022887,-0.78102,1.596361,3.925264,-22.448004
1305,1.786531,0.130175,-1.219957,-0.057422,0.047784,-0.818768,1.785308,4.051179,-19.489676
1306,1.774938,0.130175,-1.199302,-0.042967,0.034132,-0.815555,1.911074,4.617721,-17.286688
1307,1.78885,0.142341,-1.217375,-0.058226,0.042162,-0.813948,1.848191,4.743636,-17.853081
1308,1.78885,0.142341,-1.217375,-0.057422,0.059831,-0.847679,1.659393,3.358871,-17.790199
1309,1.784212,0.144774,-1.191556,-0.046982,0.024494,-0.83001,1.407564,4.051179,-20.622612
1310,1.784212,0.14964,-1.227703,-0.060635,0.035738,-0.83001,2.036989,4.491806,-24.776905
1311,1.777257,0.14964,-1.217375,-0.058226,0.022085,-0.823586,1.785308,4.491806,-26.791096
1312,1.777257,0.137474,-1.212212,-0.043769,0.034132,-0.825995,0.841171,3.862381,-28.868168
1313,1.786531,0.156939,-1.194138,-0.060635,0.04136,-0.78584,1.659393,4.743636,-26.098639
1314,1.781894,0.171539,-1.232867,-0.050998,0.044571,-0.787447,1.911074,4.869551,-19.615591
1315,1.781894,0.171539,-1.232867,-0.068666,0.044571,-0.820373,1.722276,4.806519,-15.712976
1316,1.779575,0.164239,-1.219957,-0.064651,0.024494,-0.817964,1.281649,3.610551,-14.76884
1317,1.781894,0.171539,-1.217375,-0.050998,0.038147,-0.817964,1.407564,3.925264,-15.77601
1318,1.779575,0.181271,-1.230285,-0.05662,0.03654,-0.813948,2.162904,3.736466,-16.531349
1319,1.779575,0.176405,-1.222539,-0.054211,0.039754,-0.840452,1.596361,3.673583,-20.370781
1320,1.779575,0.181271,-1.227703,-0.050195,0.009234,-0.825995,1.596361,4.177094,-24.336279
1321,1.779575,0.181271,-1.227703,-0.068666,0.074286,-0.842057,2.162904,4.869551,-23.895651
1322,1.772619,0.178838,-1.217375,-0.045376,0.035738,-0.823586,1.785308,5.058348,-21.818579
1323,1.781894,0.186138,-1.204466,-0.071879,0.049391,-0.813146,1.596361,4.617721,-17.286688
1324,1.781894,0.176405,-1.214794,-0.055013,0.037345,-0.836437,1.218766,2.981126,-14.202446
1325,1.779575,0.183704,-1.235449,-0.05662,0.018872,-0.820373,1.533478,3.673583,-14.517159
1326,1.774938,0.186138,-1.207048,-0.050998,0.0518,-0.805918,1.407564,4.239976,-13.950616
1327,1.774938,0.186138,-1.219957,-0.061437,0.047784,-0.826799,1.596361,3.673583,-7.719248
1328,1.774938,0.186138,-1.219957,-0.055815,0.054209,-0.805918,1.344681,3.547668,-8.159876
1329,1.774938,0.191004,-1.20963,-0.05662,0.034934,-0.795478,1.911074,4.114211,-6.208569
1330,1.777257,0.205603,-1.194138,-0.055815,0.054209,-0.817964,1.848191,2.918243,-1.928359
1331,1.781894,0.19587,-1.178647,-0.048589,0.038951,-0.832419,1.974106,3.232956,-0.669509
1332,1.786531,0.200736,-1.201884,-0.081515,0.042967,-0.814753,2.225786,3.358871,2.666414
1333,1.774938,0.200736,-1.181229,-0.066257,0.050998,-0.827601,0.904053,3.547668,4.303008
